time,seconds_elapsed,imu1_accel_x,imu1_accel_y,imu1_accel_z,imu1_gyro_x,imu1_gyro_y,imu1_gyro_z,imu2_accel_x,imu2_accel_y,imu2_accel_z,imu2_gyro_x,imu2_gyro_y,imu2_gyro_z,imu3_accel_x,imu3_accel_y,imu3_accel_z,imu3_gyro_x,imu3_gyro_y,imu3_gyro_z
1773257640135076400,16.378076416015624,0.1366794110525399,0.0517624090064317,0.0225455938071012,0.0055119544267654,-0.0010555125772953,0.0012143906205892,0.5834025302678346,0.9521820666462184,-0.1007803050776943,1.1519352197647097,-0.059179276227951,-0.0858040153980255,0.8484417061865329,-0.2591109549134969,0.1530605639457702,-0.0355629846453666,-0.5020986795425415,-0.1054214909672737
1773257640145103000,16.38810302734375,0.1427881762564182,0.0399193014016374,0.0442921461910009,0.0041767219081521,-0.0003076423890888,0.0034559108316898,0.7387438986271619,0.9456083873443304,-0.1761059970337897,1.1218180656433103,-0.2026073485612869,-0.1240788623690605,0.6078665249168872,-0.1459364111542701,0.0595598579496145,-0.0572674795985221,-0.5378636121749878,-0.1220001950860023
1773257640155129000,16.398129150390623,0.1496376037597656,0.0364114394111558,0.0661643707811832,-0.0011573231313377,0.0014369944110512,0.004293474368751,0.7416267605870962,0.970486150426045,-0.2580383937785401,1.0796785354614258,-0.3479999601840973,-0.1699866950511932,0.3104009971678256,-0.0862631559580564,0.0714049017831683,-0.0698033943772316,-0.4794620275497436,-0.1262986660003662
1773257640165156400,16.40815625,0.1583067209709435,0.0299385536026209,0.0723012661010027,-0.0005275956355035,0.006844229530543,0.0073179844766855,0.4966968912392854,1.0218644554857164,-0.4411592380104586,1.0283228158950806,-0.4545872807502746,-0.2150267660617828,-0.0018231237739324,-0.0582382539570331,0.0500756980285048,-0.0844664871692657,-0.3527051508426666,-0.126944750547409
1773257640175183400,16.418183349609375,0.1584849270820617,0.0112496352236717,0.0505704958081245,-0.0048930495977401,0.0049312808550894,0.0099963247776031,0.0896001914262771,1.1986082389663903,-0.6112996046381071,0.9728289842605592,-0.5299422144889832,-0.2583502829074859,-0.0913432357013225,-0.059769701308012,-0.109425420358777,-0.112821377813816,-0.2021543830633163,-0.1566871106624603
1773257640185209300,16.428209228515627,0.1426455529153347,-0.0066789297746494,0.0312596461385488,-0.0033630663529038,0.0005494696088135,0.0077325524762272,-0.3523673307597637,1.3965405756220222,-0.8284884669601916,0.8973217010498047,-0.5327915549278259,-0.3089095950126648,-0.0143798230081796,-0.1513929229944944,-0.3177750330671668,-0.1473625749349594,-0.0310082007199525,-0.2343190610408783
1773257640195236000,16.438236083984375,0.1430295837968588,-0.0172225721534341,-0.0056979193806648,-0.0028852950781583,0.0004368182271718,0.0073498571291565,-0.7135895836263895,1.4838998562537131,-1.1331974630314856,0.8222821354866028,-0.4472106099128723,-0.3982759714126587,0.0526706829577684,-0.379396207460761,-0.4303139092713594,-0.1783637702465057,0.0673443078994751,-0.3149846196174621
1773257640205262800,16.448262939453127,0.164821728888154,-0.0088156860750168,-0.0385942268103361,-0.0022845296189188,-0.0032762205228209,0.002254863269627,-0.9103069184690712,1.568611837247014,-1.1441857439052312,0.7681230306625366,-0.3313736021518707,-0.5364184379577637,0.0829401490151882,-0.4004921869814395,-0.3812774911627173,-0.1474071890115738,0.0364939831197261,-0.4119575321674347
1773257640215289900,16.458289794921875,0.172473704946041,0.0294661137852817,-0.0334662162721157,0.0007581317913718,-0.0037950044497847,0.000871617347002,-1.0516162543445824,1.6779130467042327,-0.996128979596123,0.7377116084098816,-0.1982626765966415,-0.6978707313537598,0.1429120948970317,-0.1742851382821798,-0.1803545213237404,-0.0609848350286483,0.0268808174878358,-0.5073675513267517
1773257640225316900,16.46831689453125,0.1557569634228944,0.0682209745174273,-0.0247533329844474,0.0032043550163507,0.0017313710413873,-0.0041587939485907,-1.3340841194480657,1.7570730926588176,-0.7983015646196902,0.7168049812316895,-0.0242362152785062,-0.8188130855560303,0.0681815558224916,0.0841530319362878,0.0846741332009434,0.0603743493556976,0.0046831024810671,-0.5540823340415955
1773257640235342800,16.4783427734375,0.128555141307786,0.0998118984369561,-0.0075122753262519,0.0075812600553035,0.0053037353791296,-0.0096619501709938,-1.8973019398212432,1.7854932775877417,-0.773912242642045,0.7091188430786133,0.1877833604812622,-0.8805710077285767,-0.1428138952195644,0.1136900920659303,0.28899200617522,0.1573462337255478,-0.0730728954076767,-0.5184006094932556
1773257640245369900,16.488369873046874,0.1256383040130138,0.1247282034307718,0.0206359607934951,0.0092166708782315,0.0054969755001366,-0.009233103133738,-2.513032037720084,1.8729685858145355,-0.6474854916650802,0.7286587953567505,0.3780408799648285,-0.8790338635444641,-0.3197060011297464,0.0245493348449468,0.1239393911406397,0.1593942046165466,-0.1638086587190628,-0.4135631620883941
1773257640255395800,16.498395751953126,0.1269797817498445,0.1275360639257356,0.0565653523087501,0.0102893915027379,0.0058133588172495,-0.0090030059218406,-2.8473896645367143,1.996874805337936,-0.332136005244404,0.7760832905769348,0.5250949859619141,-0.8213087916374207,-0.40401626945436,-0.1115425586432218,-0.1283908175915479,0.0826266780495643,-0.2070585936307907,-0.279281735420227
1773257640265422800,16.5084228515625,0.1425199537742882,0.1012504798727109,0.0796124658972024,0.0094356592744588,0.0052847755141556,-0.0026045572012662,-2.960817890796065,1.955323920679092,0.050760940346308,0.8557652831077576,0.5885359644889832,-0.7265293002128601,-0.4140624471724033,-0.1624766270667314,-0.2683483004666864,0.0234669502824544,-0.2274501621723175,-0.1512966156005859
1773257640275449900,16.518449951171874,0.1199878039706498,0.0598132481887936,0.0939922889053821,0.0098135620355606,0.0050621349364519,0.001705503091216,-2.824624290499091,1.9009907113365827,0.5034478268042206,0.9511381387710572,0.5064085721969604,-0.5959486365318298,-0.4222989451199769,-0.3297147694468498,-0.2365485561020672,0.0290979668498039,-0.2941534519195556,-0.0314207710325717
1773257640285475800,16.528475830078126,0.0963023194134235,0.0289743116803467,0.088649174311757,0.0106412433087825,-0.0049115545116364,-0.0010745846666395,-2.6425147422015667,1.7984863224126395,0.7318580846361815,1.024049162864685,0.3261309564113617,-0.420078307390213,-0.6896580884188414,-0.6134855338424444,0.0522035038374364,0.0722233355045318,-0.314259797334671,0.0700089186429977
1773257640295502800,16.5385029296875,0.0943184521198272,0.0048667292535305,0.08677870426476,0.0093922205269336,-0.0041168672032654,-0.002632001414895,-2.580411044988036,1.6813804305538531,0.6943954191390425,1.0437349081039429,0.0841321870684623,-0.1924523264169693,-0.8517448393851518,-0.5559054515331984,0.1312614045917987,0.1374297887086868,-0.2692022025585174,0.128816470503807
1773257640305528800,16.54852880859375,0.0875240427393466,-0.0006133826579898,0.0817693516701459,0.0085101779550313,-0.0067452508956193,-0.0070119216106832,-2.7041929074794053,1.5419472638137637,0.4482855096938088,1.042164921760559,-0.1248301565647125,0.0438675209879875,-0.6892085910856723,-0.2929956888586282,0.0592322334304451,0.2329936027526855,-0.2494724243879318,0.1541838943958282
1773257640315555800,16.558555908203125,0.092741485126689,0.0176764534007757,0.0496685785323381,0.0035175499506294,-0.0051582735031843,-0.0136320069432258,-2.741407078108191,1.4585392050258814,0.2633519900167361,1.0266757011413574,-0.2837817370891571,0.2250796556472778,-0.3060579995274544,-0.0169885442018508,-0.0830488700866699,0.3293236494064331,-0.2504365444183349,0.1458752900362014
1773257640325582800,16.568582763671873,0.0898737476706504,0.0262909543478861,0.0380623118907213,0.0031514083966612,-0.0051214611157774,-0.017818134278059,-2.441909752270579,1.4629771874733268,0.0823589881263673,1.0147600173950195,-0.3972805738449096,0.3033340573310852,-0.064663318568468,0.1807663169950246,-0.1855775166690349,0.4444124102592468,-0.2232273072004318,0.0972464978694915
1773257640335608800,16.57860888671875,0.0639945524614304,0.0415526747571304,0.0155161335617303,0.0012453838717192,-0.0032692328095436,-0.0249862968921661,-1.920959878784418,1.425991711033881,0.0483195750761777,1.0022345781326294,-0.4459871053695678,0.2855516076087951,-0.1446504629969597,0.3638298050165176,-0.0723139794521033,0.5960264205932617,-0.1506122499704361,0.0104856044054031
1773257640345635800,16.5886357421875,0.0593757335543632,0.0484099202407524,0.0115156657487154,0.0038351849652826,-0.002076894044876,-0.0279382690787315,-1.417527541810274,1.402231626870483,0.0443872405959293,1.0033972263336182,-0.4015586078166961,0.1950151026248932,-0.2959346649199724,0.4743722467064857,0.0118070499107241,0.7738510370254517,0.0607860088348388,-0.0913371592760086
1773257640355661800,16.598661865234376,0.0413244554918259,0.0438368401715531,0.0028816929161548,0.0028056069277226,-0.0041938405483961,-0.0324459373950958,-1.1520412066459655,1.3904653473615645,-0.1098577108288183,1.00952410697937,-0.27567258477211,0.0750340968370437,-0.1995522660076618,0.4057178126752376,-0.1191571253001689,0.9127524495124816,0.3867582976818084,-0.2090540379285812
1773257640365688800,16.608688720703125,0.0239548030178993,0.0476960728829726,-0.008882979157567,0.0061563192866742,-0.0070772990584373,-0.0353758856654167,-0.9857184255450964,1.3273841834180056,-0.2010461943598464,1.0104900598526,-0.1414576172828674,-0.0459397137165069,0.1312625736355781,0.3002180413275957,-0.4470471635378897,0.9616462588310242,0.6430438756942749,-0.3468220233917236
1773257640375715800,16.6187158203125,0.0190863201986998,0.0572850814180448,0.0072094929873943,0.0046819932758808,-0.011673648841679,-0.0320839509367942,-0.8590747438818216,1.217411650570482,-0.3030633477561175,0.9968271851539612,-0.0411347411572933,-0.1529540419578552,0.4522457550942897,0.1727396624058484,-0.6156374511793256,0.9043126106262208,0.777646005153656,-0.5032708644866943
1773257640385741800,16.628741943359376,0.0247831436008214,0.0556252584470435,0.03308510800004,0.005404632538557,-0.0178705994039773,-0.0336188711225986,-0.7066349421828985,1.0559547219403087,-0.2640240440594032,0.9749411940574646,-0.0076620336621999,-0.2305575758218765,0.6624900955080986,0.0248112006515264,-0.5852936047114432,0.7787839770317078,0.7962609529495239,-0.6713847517967224
1773257640395768800,16.638768798828124,0.0376619874615222,0.0668277300607413,0.0534393292427062,0.0045039514079689,-0.0197076480835676,-0.0306808724999427,-0.629157734748721,0.974253028678894,-0.2655656840108334,0.938155472278595,-0.027683412656188,-0.2614555954933166,0.5078957461237907,-0.3323182299435138,-0.5299427427589893,0.6295248866081238,0.7808724045753479,-0.8173528909683228
1773257640405794800,16.648794921875,0.0558669217158108,0.058758770699799,0.07797580460608,0.0048429681919515,-0.0186427626758813,-0.0309427455067634,-0.7880565033286809,0.9524228896647692,-0.2949375071087852,0.8924133777618408,-0.0513738803565502,-0.2429314851760864,0.2245902611523866,-0.7093161440908908,-0.6009482699610292,0.5053597688674927,0.8629449009895325,-0.9243955016136168
1773257640415821800,16.65882177734375,0.0643231998939067,0.0534477682774886,0.0857516993045806,0.001652235048823,-0.0198726095259189,-0.0304050538688898,-1.0459878930687905,0.8887342613473534,-0.3636873278059065,0.8257802724838257,-0.0694215968251228,-0.1885800957679748,0.1915343792468309,-0.8104337548315524,-0.8515675831221043,0.3891650140285492,1.0986638069152832,-0.979339838027954
1773257640425848800,16.668848876953124,0.0579500846654176,0.0473321349414065,0.10610007532835,-0.0043568848632276,-0.020257331430912,-0.0353306457400321,-1.2330308061152695,0.778160839997232,-0.488371765160188,0.7627055048942566,-0.0753738135099411,-0.1523017585277557,0.2059089415580034,-0.5446726943790913,-1.1292919069603085,0.2875374555587768,1.2900817394256592,-0.9893466234207152
1773257640435874800,16.678874755859376,0.0336228681385517,0.0439505662117153,0.0950239700406789,-0.0013549696886911,-0.0229884013533592,-0.037445992231369,-1.1165887849926948,0.6684734077014028,-0.4160620234917849,0.7253442406654358,-0.0750923156738281,-0.1621011197566986,0.117778822684288,-0.274459915214777,-1.2252993350803851,0.221071720123291,1.436851978302002,-0.9485394954681396
1773257640445901800,16.68890185546875,0.0175800803542137,0.0413547410322353,0.0736111796557903,-0.0041266679763793,-0.0207416452467441,-0.0398960709571838,-0.9828928467303514,0.6438358100511133,-0.2740974020453169,0.7071788907051086,-0.0489387176930904,-0.2012437731027603,0.0093242931842803,-0.015496259817481,-0.9966790877595544,0.2378898411989212,1.6922224760055542,-0.8318648338317871
1773257640455927800,16.698927734375,0.0046966333836317,0.0238154310798272,0.0493587819308042,-0.008064417168498,-0.0256716888397932,-0.0390654280781745,-0.9647703300625086,0.5731545463673771,-0.2422771263493225,0.6978862881660461,-0.009562817402184,-0.2459233552217483,-0.0949754547238349,0.3953443026989698,-0.5492091687649489,0.2859514653682709,2.1708028316497803,-0.6548254489898682
1773257640465954800,16.708954833984375,-0.0029237784922122,0.0312069661032408,0.0201642516285181,-0.0115833692252635,-0.0246860571205616,-0.0379407256841659,-1.0096382303148508,0.4696329432249069,-0.2526457409547641,0.683157205581665,0.0082116741687059,-0.2732226550579071,-0.2793348277747631,0.1940074913620948,-0.7378402277857065,0.263150542974472,2.594048500061035,-0.4993727803230285
1773257640475981800,16.71898193359375,-0.0016407529443502,0.0450931603755801,0.0014268179327249,-0.0125588849186897,-0.0232780445367097,-0.0355430766940116,-1.0966250243723392,0.4260767100930214,-0.2626196936868131,0.66561359167099,0.0167180765420198,-0.2861408591270447,-0.1940975077331066,0.1368003340184688,-1.215105565585196,0.146595761179924,2.823552370071411,-0.4048719704151153
1773257640486007800,16.7290078125,0.0011607874076813,0.0446470971085131,-0.0138566759169101,-0.0130918631330132,-0.0252111330628395,-0.0350874364376068,-1.13297234903872,0.3880129368975758,-0.2512056251490489,0.6392850875854492,0.006045991089195,-0.2934293746948242,-0.1287853698670864,0.0856236890107393,-1.4063552826717496,-0.0212217364460229,2.9361844062805176,-0.325095921754837
1773257640496034800,16.739034912109375,0.0293950213104486,0.0533440521746873,0.0022872341543436,-0.011802626773715,-0.0234744846820831,-0.0381548628211021,-1.1207570105880498,0.3927906726934015,-0.2210153618076816,0.6276372075080872,0.0038909609429538,-0.293929785490036,-0.2570160284608602,-0.0177583595305681,-1.4546800453796982,-0.1466473042964935,2.9553940296173096,-0.1900629103183746
1773257640506060800,16.749060791015626,0.0636286417584866,0.0698229663539677,0.0170779760509729,-0.0102139413356781,-0.0236621871590614,-0.0376464314758777,-1.1725678618460893,0.4372346484452485,-0.1166414892174303,0.6389933824539185,0.010214059613645,-0.2845149338245392,-0.4244704439401626,0.2977501899093389,-1.1878528170004483,-0.2214602977037429,2.854990005493164,0.0097759049385786
1773257640516087800,16.759087890625,0.0824807148098945,0.0822786894317716,0.0309632935404777,-0.0084983333945274,-0.0254859197884798,-0.0317280888557434,-1.225696809965372,0.5071054725289345,-0.0390111918470822,0.6612417101860046,0.0111038219183683,-0.2660637497901916,-0.6664683514893055,0.5816828668683767,-0.7724263879984616,-0.3237835764884949,2.5233917236328125,0.2355939894914627
1773257640526114800,16.76911474609375,0.0908049641061574,0.0770646445779129,0.0553507158219814,-0.0044267363846302,-0.0253469534218311,-0.0305984113365411,-1.2074690793573857,0.5151284738563001,0.003924607831519,0.6908566951751709,0.0031570373103022,-0.2298267781734466,-0.7275058807760476,0.7588947062522172,-0.8931900717124343,-0.5356303453445435,1.9368082284927368,0.4497869908809662
1773257640536140800,16.779140869140626,0.0799433783520013,0.0790569509062916,0.0643307256132364,-0.0052757523953914,-0.0273906625807285,-0.0238712653517723,-1.176486496594548,0.4870442428834736,0.0042043746209703,0.696092963218689,-0.0304768234491348,-0.1694893985986709,-0.5534487060308456,0.7704355064421892,-1.0472136354714632,-0.8737164735794067,1.2514575719833374,0.6736565232276917
1773257640546167800,16.789167724609374,0.0640950902264565,0.0813699405563995,0.0766097769498825,-0.0065013389103114,-0.02498609572649,-0.0216951966285705,-1.2463625813752413,0.3615675591729581,-0.2707612250936217,0.6751052737236023,-0.0551019459962844,-0.0811609700322151,-0.6709422820329666,1.1768266883343457,-2.0803198351353407,-1.442284345626831,0.4634871482849121,0.8605169653892517
1773257640556193800,16.79919384765625,0.0747029934804886,0.0939121363412588,0.0736059189587831,-0.0064427494071424,-0.0215490199625492,-0.0157257206737995,-1.2787830879867077,0.1693403753563761,-0.5003247994128615,0.5836262106895447,-0.0326911807060241,0.0436206459999084,-0.5112386268109083,1.0985393335610627,-2.822563558577001,-1.8718963861465447,-0.8330355286598206,0.685562789440155
1773257640566220800,16.809220703125,0.058865519009903,0.1020472928062081,0.0654892479985952,-0.0115400031208992,-0.023052267730236,-0.0077214008197188,-1.5043237817317243,0.183296419994533,-1.1524746296271682,0.5415372252464294,-0.1013319194316864,0.0228166747838258,1.3737842616736888,1.530392581228912,-1.2296902635157108,-1.7932430505752563,-2.440220355987549,0.2509106397628784
1773257640576247800,16.819247802734374,0.0437970561504364,0.1117789977476,0.0573766686916351,-0.013990644365549,-0.0247484352439641,-0.0023311632685363,-0.2227928563416004,-0.1242585400924086,-0.7905616910826414,0.5663350224494934,-0.0562403388321399,-0.0375710353255271,2.611361479046941,1.7878014083996414,-0.2735062677517533,-1.6739267110824585,-3.580981731414795,0.0520434007048606
1773257640586273800,16.829273681640625,0.0490437246322631,0.1135437423978,0.0530365936607122,-0.0126473819836974,-0.031257040798664,-0.0010908525437116,0.0666629679530858,-0.3725048405118286,-0.2336128679763525,0.5238106846809387,-0.0727860480546951,-0.075071781873703,1.9868302350550888,1.4927382656171917,-1.0785352409303188,-1.7531908750534058,-4.448975563049316,-0.0255704335868358
1773257640596300800,16.83930078125,0.0358346259038895,0.1195228533400222,0.0437841966688632,-0.0097993975505232,-0.0300940386950969,-8.76393169164e-05,-0.4352402597576379,0.1789372018717229,-0.9977974973302334,0.546504557132721,-0.1058190986514091,-0.1149510219693183,2.229291668462753,1.2195566997751592,-1.2832467893972992,-1.869552493095398,-5.260634899139404,-0.1715308725833892
1773257640606326800,16.849326904296873,0.0383908131927251,0.1173967280315235,0.0282680631071329,-0.008673139847815,-0.0348249189555645,-9.78540629148e-05,-0.1525561215549707,-0.0370119260549545,-0.3898958280347287,0.555038571357727,-0.1079631522297859,-0.1336298435926437,3.066574851775169,1.231340368810296,-0.8601829973846673,-1.9285197257995603,-5.977879524230957,-0.4219883680343628
1773257640616353800,16.859353759765625,0.0350964478224515,0.107265575443767,0.0275865105837583,-0.0068379556760191,-0.0350318476557731,0.0010102866217494,-0.2864092962056398,0.0988892671667039,-0.4098167358940467,0.5669418573379517,-0.0993158668279647,-0.1351262778043747,4.119028725987673,1.2359350031241774,-0.3484221002653241,-1.9370241165161133,-6.6367902755737305,-0.7977861762046814
1773257640626380800,16.869380859375,0.0563257713992148,0.0805680495889857,0.0222749601721763,-0.002274599391967,-0.0376378670334816,0.003286775201559,-0.4343085318654775,0.2180785411708057,-0.4230800124950706,0.6065249443054199,-0.0796516165137291,-0.1088472679257392,4.656261625754833,1.0991109959691765,0.1821545564830303,-2.092390537261963,-6.424354553222656,-1.4704750776290894
1773257640636406800,16.87940673828125,0.0625052637517452,0.0715102253211662,0.0130973819822072,-0.000337415956892,-0.0314260460436344,0.0046164914965629,-0.4726508297413587,0.1523645445056259,-0.1910233427184633,0.6114193201065063,-0.1040392518043518,-0.0854362174868583,3.192373314785957,0.3833344236925244,0.3793776488907635,-2.4932785034179688,-4.131323337554932,-2.116708755493164
1773257640646433800,16.889433837890625,0.0597498640963807,0.0641196401458233,0.0182522805273532,-0.0011593772796913,-0.0275139100849628,0.0094538182020187,-0.3690764734983444,0.1801684972323477,-0.336968941826187,0.5704206228256226,-0.1269743144512176,-0.047632772475481,-1.2749708362221717,0.9938900415629148,0.8261683534495532,-2.3593432903289795,-1.397087812423706,-2.123077154159546
1773257640656460800,16.899460693359377,0.059549994142726,0.0565471955975517,0.0138064070343971,-0.0066268472000956,-0.025637712329626,0.0115065835416316,-0.3945376624912023,0.0420861605793237,-0.5418378362793476,0.5246182680130005,-0.1330103725194931,0.0117834163829684,-4.783229132544994,-0.3646992813274264,5.971589606806636,-0.9620676636695862,-0.1182565540075302,-1.421422004699707
1773257640666486800,16.90948681640625,0.0589870630303397,0.0504703599018976,0.0088671970665454,-0.0115631762892007,-0.019960980862379,0.0149694383144378,-0.4248825318723916,-0.1508221373692155,-0.5517765350349247,0.4427829682826996,-0.1410215646028518,0.0624916777014732,-7.301597270596027,-4.228408845899999,12.599206835108994,0.3537125587463379,0.3158173859119415,-0.7622206807136536
1773257640676513800,16.919513671875,0.0312409414380788,0.0476520145455375,-0.0001467149943113,-0.0125647913664579,-0.0187013056129217,0.0145188327878713,-0.4094125755399465,-0.124371645078063,-0.7519236251305789,0.3675401210784912,-0.1367293447256088,0.1078783273696899,-4.813037410831451,-2.181315865322947,5.632645821243524,0.5765917897224426,0.2461849600076675,-0.4633724689483642
1773257640686539800,16.929539794921876,0.0068336454123258,0.0473574520457536,-0.0084399115651845,-0.0132054639980196,-0.0175947546958923,0.012331960722804,-0.5201151762276888,-0.1933313456661999,-0.6818772983495146,0.3101693093776703,-0.0921564400196075,0.1578184068202972,-1.374984869635105,2.172870108538866,-1.7687400034464895,0.3634845614433288,0.1669481992721557,-0.3498182296752929
1773257640696566800,16.93956689453125,0.0023988047700375,0.0499747949372977,-0.0128507137447595,-0.0125889424234628,-0.0151190795004367,0.0103548299521207,-0.7784381956338882,-0.0528667900517582,-0.6232410580508411,0.3055551052093506,-0.0491154938936233,0.1591321527957916,-0.4239467123270034,2.0955688421934844,-1.91525450674966,0.3115718066692352,-0.3552587926387787,-0.3334592580795288
1773257640706592800,16.9495927734375,0.0057218847781419,0.059666094803065,-0.0003454524368047,-0.0053584869019687,-0.0150472056120634,0.0124704958871006,-0.6022445933818816,0.0775755532421171,-0.2509085784312337,0.342804342508316,0.0174685101956129,0.0882759541273117,0.0568868393480777,0.303393456493318,-0.1423461315773427,0.369575172662735,-0.8170232176780701,-0.3231112658977508
1773257640716619800,16.959619873046876,0.0271299989879131,0.0426687097076326,0.0087438629478216,-0.0030154376290738,-0.0184683017432689,0.0144899720326066,-0.1583124931246042,0.139551824683696,0.0843920831228606,0.3805551826953888,0.0760090500116348,0.0059637697413563,0.2048036106646061,-0.4438365309283137,0.359155383464694,0.3119768798351288,-1.053013563156128,-0.3409944772720337
1773257640726646800,16.969646728515624,0.0454419372806325,0.0283016731157898,0.0283113177269697,-5.83132496103e-05,-0.0193346515297889,0.0213606711477041,-0.0340782106906175,0.1527313319914043,0.0817595426621846,0.3925492763519287,0.0990366339683532,-0.0306043922901153,0.3383037340939044,-0.4004623763650655,-0.1850591918833553,0.2186887711286544,-1.187196969985962,-0.4241519570350647
1773257640736672800,16.9796728515625,0.0474404176214709,0.0312218714114278,0.0397913276404142,-0.0004151769680902,-0.0135039258748292,0.0223111547529697,-0.1735281824350357,0.0670860156707465,-0.0062104720126837,0.3606483340263366,0.0754396989941597,-0.0238652639091014,0.3408621864050626,-0.4928101129338145,-0.2726052272588014,0.1518638730049133,-1.2168807983398438,-0.5667484402656555
1773257640746699800,16.98969970703125,0.0447907798955216,0.0399416958965361,0.0380728332847356,-0.0019094765884801,-0.0057005984708666,0.0226262062788009,-0.2823550523787737,0.0320921514399349,-0.2436516295729205,0.3028816282749176,0.0619771741330623,0.0097835948690772,0.2770370722264051,-0.4703907758548855,-0.1550542219810187,0.1382900029420852,-1.124137282371521,-0.7065982222557068
1773257640756726800,16.999726806640624,0.0410182756194844,0.03604344634898,0.044989480805397,-0.0050975466147065,-0.0011708275415003,0.0230440571904182,-0.2521691729515791,-0.0392760715946555,-0.3722049077171832,0.2575924396514892,0.0606061816215515,0.030716573819518,0.0976397054970264,-0.3941629839599132,0.0969875251986086,0.1664032936096191,-0.976327121257782,-0.8052588701248169
1773257640766752800,17.009752685546875,0.0324065511513501,0.0414661289848387,0.0349585006564855,-0.0048415400087833,0.0021443297155201,0.0208138618618249,-0.0314396788805723,0.0012260346636176,-0.282925618808344,0.2340616285800933,0.0647493973374366,0.0181671511381864,-0.2355845333755016,-0.3899418591335415,0.3028767391428351,0.219072625041008,-0.809490978717804,-0.8243798017501831
1773257640776779800,17.01977978515625,0.0301432823944836,0.0387780224120244,0.0338999315142631,-0.0093183135613799,0.0022372743114829,0.0144638195633888,0.1491939516454935,0.1927560299962759,-0.1381887927021831,0.2315209805965423,0.0950833335518837,-0.0140871908515691,-0.6151303784400224,-0.397880250917375,0.430186921890825,0.271066665649414,-0.7188934087753296,-0.7808271050453186
1773257640786805800,17.0298056640625,0.0382364994138479,0.0291693593284115,0.0264244810670614,-0.0069428542628884,0.0002679680474102,0.0124049056321382,0.2395195347368717,0.3443609883062541,-0.0002412979425862,0.2447244822978973,0.1213227286934852,-0.0515558347105979,-0.6863327433884143,-0.2608919931113719,0.4597289504565298,0.304651528596878,-0.7456696033477783,-0.7149527668952942
1773257640796832800,17.039832763671875,0.0486176081746816,0.0311317819751799,0.0084855042725801,-0.0085071949288249,-0.0011669429950416,0.0078359860926866,0.3346943114250898,0.4182794803455472,0.0889201002076268,0.2536516785621643,0.1268511712551117,-0.0781506896018982,-0.5631412480056286,-0.0838154705449938,0.5787286932379007,0.3158474266529083,-0.8025479912757874,-0.6342983245849609
1773257640806858800,17.049858642578126,0.0346259077012538,0.0136796023169532,0.0092757778674364,-0.010950032621622,-0.0025835796259343,0.0040087830275297,0.2955909660488366,0.4135889844417572,0.0305862586553208,0.2493536621332168,0.1171399131417274,-0.0703737810254097,-0.4013701388597488,-0.0285147313445806,0.5338140312343835,0.2897404730319977,-0.8387110233306885,-0.521624743938446
1773257640816885800,17.0598857421875,0.0350637145966291,-0.0077808631345629,0.0028927988320589,-0.0105550857260823,-0.0033793323673307,0.0029099620878696,0.1638759724706411,0.3404645653896033,-0.0253615234440891,0.2404033094644546,0.0869684293866157,-0.0455509908497333,-0.3670359075814485,-0.0242667185112833,0.3094492494009435,0.2077265381813049,-0.938655436038971,-0.3792621791362762
1773257640826912800,17.069912841796874,0.0396248119670897,-0.0077601491400972,0.0122276134103536,-0.0053826179355382,-0.003965706564486,0.0026710135862231,0.1628483829885721,0.2451571022324264,-0.1265141917984001,0.2183662056922912,0.0453263670206069,-0.0165728889405727,-0.5908516772300004,-0.0426589920312166,0.0519749557785689,0.083802729845047,-1.161531925201416,-0.2027241885662078
1773257640836938800,17.079938720703126,0.0369652373690158,0.0003468406762927,0.0225800805985927,-0.005557854194194,0.001161144580692,0.0032166950404644,0.1809749913096427,0.1418371591418981,-0.2317476038274355,0.1837083548307418,0.0106991492211818,0.0173264872282743,-0.9527917229771612,-0.07190525252074,-0.1788352758672088,-0.0482001155614852,-1.368388056755066,0.0070528201758861
1773257640846965800,17.0899658203125,0.0547094953089952,0.0155246456617489,0.0257335761934518,-0.0068025821819901,0.0019582225941121,0.0091330092400312,0.0509679706931114,0.0063498074181377,-0.3979313235174864,0.1482723504304886,0.0139880795031785,0.0398735888302326,-1.2185019300252198,-0.0785486360579729,-0.3346023953579366,-0.1566522866487503,-1.502802848815918,0.215375930070877
1773257640856991700,17.09999169921875,0.0580039702771231,0.0299573679009452,0.0405494525313377,-0.0081488098949193,0.0014945664443075,0.0135967340320348,0.0601309358358383,-0.0825916278384625,-0.4693092276958748,0.1336409449577331,0.0304786395281553,0.0320534817874431,-1.2065835286945104,0.0921788097426295,-0.4020140627864748,-0.2527104318141937,-1.6712477207183838,0.3659987151622772
1773257640867018800,17.110018798828126,0.0593927577544003,0.0455608874851837,0.0462485409557819,-0.0103264274075627,0.0063497931696474,0.0145610636100173,0.2656283739835023,-0.0732503835193812,-0.3350966451482847,0.1273068189620971,0.0384573303163051,0.0013944457750767,-1.0191536621570587,0.3642480304285884,-0.4941375986779108,-0.361174076795578,-1.8647010326385496,0.4300107061862945
1773257640877045800,17.120045654296874,0.0518418674508109,0.047606093044579,0.0508867221504449,-0.0080741923302412,0.0069841584190726,0.0123525047674775,0.3797340611129999,-0.0531608045622706,-0.2824420365424827,0.1283289343118667,0.0444904565811157,-0.0244472716003656,-0.8867530244022608,0.5106894684955477,-0.5445017947915941,-0.4327784180641174,-1.907204747200012,0.3965999484062195
1773257640887071700,17.13007177734375,0.037758287442848,0.0437720313070341,0.0562345129191875,-0.0088867293670773,0.0124383531510829,0.0123861609026789,0.3515858249932527,0.0066233636625111,-0.2278372802495956,0.1407478600740432,0.0524832755327224,-0.0366550087928772,-0.7201566870570182,0.5113406258806587,-0.3785800687722861,-0.4146257936954498,-1.827455282211304,0.3295429050922394
1773257640897098800,17.1400986328125,0.0410322676122188,0.0356151744669303,0.0495966823399066,-0.0089740809053182,0.0070273429155349,0.010867360047996,0.3511626311451196,0.1025792077258229,-0.1611252855230122,0.158061608672142,0.0465492196381092,-0.0349428616464138,-1.0370148975402116,0.572189354597032,0.0844081300753634,-0.3442677855491638,-1.6948883533477783,0.3308625519275665
1773257640907124700,17.150124755859373,0.0461322210997343,0.0296286474032327,0.0395405677497386,-0.0076479827985167,0.009204258210957,0.0127515867352485,0.2891810990065336,0.1671186076536774,-0.1091903238281142,0.1659655421972274,0.0304541923105716,-0.0132649457082152,-1.4161334571033717,0.7177198152989148,0.2764051127321086,-0.293217658996582,-1.5937933921813965,0.4225898087024688
1773257640917151700,17.16015185546875,0.0673819298774004,0.0401926749829202,0.0314367562711238,-0.0045789564028382,0.007202626671642,0.0134440083056688,0.1182177986234426,0.1556402051754295,-0.1279776154144667,0.1580229252576828,0.001583129633218,0.0170538108795881,-1.4958751023381949,0.87024904884696,0.3144710961509496,-0.2753644287586212,-1.585948467254639,0.5886343717575073
1773257640927178800,17.1701787109375,0.0569008678734302,0.0381100965552032,0.0305605579584836,-0.0072914054617285,0.0064060045406222,0.016932163387537,0.0870025761485099,0.1274151044271886,-0.1245796526724006,0.1479710191488266,-0.0265692174434661,0.0308693256229162,-1.3719798426002263,0.9835735224708916,0.4458458614567294,-0.2998159825801849,-1.7329776287078855,0.781272292137146
1773257640937204700,17.180204833984376,0.0627735592991113,0.034090156856738,0.0243318927019834,-0.0030061132274568,0.0039564291946589,0.0202691070735454,0.1732505345374345,0.1064893669068813,-0.1131830923918634,0.1360299438238144,-0.0430070497095584,0.033109575510025,-1.0804840369105335,1.1355258329138158,0.2830344860102981,-0.4069567918777466,-2.0707242488861084,0.936414361000061
1773257640947231700,17.190231689453125,0.0704770098159089,0.0370688073413446,0.0258884744942188,-0.0026469856966286,0.0075026578269898,0.0253042560070753,0.1659896036237478,0.1302352764144539,-0.1143439893973991,0.136819526553154,-0.0489978455007076,0.0367115288972854,-1.0069289713561531,1.176966096805036,-0.1187856616392731,-0.5838250517845154,-2.4463350772857666,1.01861572265625
1773257640957257700,17.2002578125,0.0704904538193717,0.0276035347837954,-0.0119821142166852,-0.0030664338264614,0.0125285759568214,0.0310178007930517,0.0725526105135679,0.1658577939376234,-0.1131130958955734,0.141208678483963,-0.0528919175267219,0.0480651184916496,-0.904486834013462,1.0562325159683823,-0.4118393642954528,-0.7957274913787842,-2.7099838256835938,1.0049324035644531
1773257640967284700,17.21028466796875,0.0768004041511565,0.0283247982630506,-0.0160866269260644,-0.0041444050148129,0.0156890023499727,0.0333168469369411,-0.0531114124625921,0.1654055201254785,-0.1304168800590559,0.1307452619075775,-0.0541223846375942,0.0768745243549346,-0.4553969126015901,0.8832727810710668,-0.9415488828204572,-1.0090078115463257,-2.855849266052246,0.9395594596862792
1773257640977311700,17.220311767578124,0.0878372734069824,0.0357476417401805,0.0010392799198627,-0.0050847670063376,0.0158027186989784,0.0332870185375213,-0.1796072100877761,0.118260907112807,-0.1790923376345075,0.1187040358781814,-0.0496253706514835,0.0957890972495079,-0.0253992296725511,0.8974766629904508,-1.2551682575128973,-1.170501708984375,-2.805962562561035,0.889225423336029
1773257640987337700,17.230337646484376,0.0743915163785219,0.0582373406415805,0.0145762223631143,-0.0043811965733766,0.0153570678085088,0.0304241981357336,-0.1595353129178285,0.0697165103048086,-0.1777213963411748,0.0996184945106506,-0.0465912334620952,0.0837310999631881,-0.146050392922759,0.2229024541959166,-1.380716837415844,-1.3506853580474854,-2.5817959308624268,0.9668475389480592
1773257640997364700,17.24036474609375,0.0715057683417573,0.0626041210163384,0.0213929166406393,-0.0020325547084212,0.017168816179037,0.0328173115849494,-0.0025496844828128,0.0469650186620652,-0.1781856711183674,0.0863895043730735,0.0029462289530783,0.02415432035923,-0.8137152607202529,-0.6042217386737465,-1.115818092881143,-1.5060625076293943,-2.179694890975952,1.1491189002990725
1773257641007390700,17.250390625,0.0723404290676116,0.0550701453149318,0.0347936654835939,-0.0007468136027455,0.0170934554189443,0.0290288589894771,0.3097936789244413,0.033468408229202,-0.1164723979945294,0.0847189798951149,0.021086586639285,-0.0686348229646682,-1.2320587462127208,-0.0564902412459254,-0.4248208648130297,-1.570348024368286,-1.7061443328857422,1.3762305974960327
1773257641017418000,17.26041796875,0.0788560215067118,0.0532335044723004,0.0639244828999042,-0.0001923434901982,0.0123005639761686,0.0305788218975067,0.3761737382829189,0.0427343953549861,-0.1933535209653899,0.0687711685895919,0.0667044073343277,-0.1029597744345665,-1.1136445482343436,0.4590045817047357,-0.1241679391995072,-1.4756184816360474,-1.2938095331192017,1.6030038595199585
1773257641027444700,17.27044482421875,0.0895954421859234,0.0375439140398055,0.0703238285481929,0.0007814978598617,0.0083116274327039,0.0350138470530509,-0.0020358897417783,0.0496593723125755,-0.247316453957092,0.0630858913064003,0.0913495868444442,-0.1320545673370361,-0.8963006049484014,0.6491410768523812,0.647375236223638,-1.2638119459152222,-0.9030390381813048,1.7976032495498655
1773257641037470700,17.280470703125,0.0849496622066944,0.0234568999657407,0.0625157851457595,-0.0029810164123773,0.0052098436281085,0.037902045994997,0.150392221519351,0.1236222880154848,-0.1970047552156262,0.0694354027509689,0.0884430110454559,-0.1433098912239074,-0.7203232757955789,0.8384379063054919,1.1731835095264016,-1.0263803005218506,-0.6142280697822571,1.9275496006011963
1773257641047497700,17.290497802734375,0.07219429859519,-0.0012262173267081,0.0497796376913785,-0.0018389360047876,0.0072969668544828,0.0400889813899993,0.0792629218071699,0.1903977764323353,-0.1051491495453752,0.0812782570719719,0.0825407654047012,-0.1284971684217453,-0.2186591175377368,0.8262418570771813,1.1748919208794832,-0.8466520309448242,-0.4966023862361908,1.978989720344544
1773257641057523700,17.300523681640627,0.073187912742421,-0.0073578884821385,0.0376373644769191,-0.0038333775009959,0.009630961343646,0.0408748760819435,-0.0468359854549169,0.228063051829487,-0.0748274144446011,0.0918810963630676,0.0685961917042732,-0.1025814116001129,0.226294142460823,0.6745245244339108,0.8847526443652808,-0.7452858686447144,-0.5173237323760986,1.9748588800430296
1773257641067551000,17.310551025390627,0.0866845231752842,0.0094099256411194,0.0314490312308073,-0.0040425425395369,0.013327233493328,0.0412509441375732,-0.0447697005748748,0.2206634430974721,-0.0660268209074391,0.0900366306304931,0.0362517461180686,-0.0605841800570488,0.3169832981675863,0.4803180033683776,0.463466091158241,-0.7209842205047607,-0.6947741508483887,1.9708534479141235
1773257641077577700,17.32057763671875,0.088130703395605,0.0195283648777753,0.0346715004086494,-0.0053901020437479,0.0144516192376613,0.0412797071039676,-0.1081283662855625,0.1529562267884611,-0.1323845451365224,0.0693968683481216,0.004494085907936,-0.0039941384457051,0.1696796903133392,0.3960089040875434,0.1057601758494973,-0.8252448439598083,-0.8498936891555786,1.9967751502990725
1773257641087603700,17.330603759765626,0.0840559282373636,0.0315944675834849,0.0374386270344257,-0.0083293626084923,0.012682307511568,0.0411394052207469,-0.2271037052780389,0.0881672360137104,-0.2645297285592183,0.0439452081918716,0.0010295148240402,0.0425273850560188,0.0419487979352474,0.2862310170292854,-0.2248373677812516,-0.9922330379486084,-0.8416993618011475,2.009956359863281
1773257641097630700,17.340630615234375,0.0683347005575895,0.0370374623550102,0.0454559292733669,-0.0055958945304155,0.0090540163218975,0.0393151380121707,-0.1767407147407531,-4.35468807816e-05,-0.3764071817126125,0.0264684818685054,0.0146814109757542,0.0468960367143154,0.2712082199424505,-0.0558750319570302,-0.339926220729202,-1.1066670417785645,-0.7618160247802734,1.9807846546173096
1773257641107656700,17.35065673828125,0.0692320147234946,0.0378767261907458,0.0430383467376232,-0.0055808639153838,0.0023002449888736,0.0355099588632583,0.1023018520891666,-0.0586098637484014,-0.3427287474619224,0.0128956399857997,0.0450909622013568,0.0052500860765576,0.474390366885066,-0.4545394189894199,-0.2498771164916455,-1.125983715057373,-0.7011646628379822,1.926666021347046
1773257641117684000,17.36068408203125,0.0828793587386608,0.0361754386981949,0.0538368041276931,-0.003150729695335,-0.0012071379460394,0.0317674167454242,0.3506476673603058,-0.1362039755605161,-0.3682985113957897,-0.0146150793880224,0.09627665579319,-0.0675626024603843,0.5831044241040945,-0.1812432868570089,0.0134216455005109,-1.0758578777313232,-0.5107422471046448,1.826601266860962
1773257641127710700,17.370710693359374,0.0880816400894895,0.0305293225700035,0.0559808304190635,-0.0037924381904304,-0.0037875836715102,0.0285587031394243,0.4732575634628534,-0.2583206813186407,-0.4997188694089651,-0.0554127469658851,0.1556305885314941,-0.1412744671106338,0.376941800045967,0.1079454109340906,0.4539540203168988,-0.8680925965309143,-0.3215001821517944,1.6970887184143066
1773257641137736700,17.38073681640625,0.0586305046776309,0.0168984182329848,0.0627519319891929,-0.0023391509894281,-0.0017705047503113,0.0310213286429643,0.4671007943987846,-0.4136068123593926,-0.6367877181705087,-0.0980353131890297,0.2003434747457504,-0.2160938382148742,0.1888555154263973,0.1940998458206653,0.946620194735378,-0.6224851608276367,-0.1563322991132736,1.5345770120620728
1773257641147763700,17.390763671875,0.0447025536227971,0.003528795180656,0.0586035801380872,-0.003803473431617,0.0018985271453857,0.0289670228958129,0.5080389539867639,-0.4839506607823073,-0.6431633906822651,-0.1171760335564613,0.2320957630872726,-0.2613818943500519,0.3730354402571916,0.3081932579904795,0.85970705043599,-0.4483557045459747,0.0120881358161568,1.3470327854156494
1773257641157789700,17.400789794921874,0.0485252537161111,-0.0057983110152184,0.0340805487781763,-0.0058655589818954,0.0027307651471346,0.0294804796576499,0.3677385028928518,-0.387703870948404,-0.4348338709138333,-0.1131290942430496,0.2150669693946838,-0.3170086741447449,0.6102642337083816,0.1383095695376396,0.5187884576685726,-0.3143742680549621,0.1194117218255996,1.1244492530822754
1773257641167817000,17.41081689453125,0.0566676436394453,-0.0146433327825739,0.0207622175216674,-0.0047816624864935,0.0049512418918311,0.0276429038494825,0.4678109884947538,-0.283085412479937,-0.201354164330475,-0.0993301719427108,0.1469911783933639,-0.3722389340400696,0.8740466875642537,-0.1360901399224996,0.2479046473748981,-0.2526482939720154,0.3663269579410553,0.8561533093452454
1773257641177843700,17.42084375,0.0631219343453645,-0.0191982926731929,0.022089082211256,-0.0086989067494869,0.0054026478901505,0.0250308755785226,0.5503846422851085,-0.3188803639605641,-0.1245498055234085,-0.0925231352448463,0.080709621310234,-0.3441066443920135,0.932553237068653,-0.3355880453944206,-0.0413018783338367,-0.2303981781005859,0.7058893442153931,0.6334761381149292
1773257641187869700,17.43086962890625,0.0668383245199918,-0.0159792575614526,0.0237169756740331,-0.0113390404731035,0.0045509273186326,0.0253958515822887,-0.1710515631884336,-0.2757369494132697,-0.2718452392043545,-0.1230005398392677,0.0481566116213798,-0.1280614882707595,0.4889642511606216,-0.7656459340780973,-0.4734216679833829,-0.1627054214477539,0.7167936563491821,0.4888177216053009
1773257641197896700,17.440896728515625,0.0568838436733931,-0.0028092852670699,0.0311854118585586,-0.0115864481776952,0.0035857975017279,0.0201315805315971,-1.3767489566981792,-0.2385699789270758,-0.2817193117585033,-0.1419124454259872,-0.0368922390043735,0.1237654164433479,0.8775918128252029,-0.7298492290318012,-0.6156551329664885,-0.1748463362455368,0.5206289291381836,0.3657857775688171
1773257641207922200,17.450922119140625,0.0604863982100039,0.0048236207641661,0.0347667774766683,-0.0113229854032397,0.0006848708726465,0.0147519316524267,-1.4965379501610994,-0.0360876508168876,-0.0577967207346111,-0.1224873140454292,-0.1016016006469726,0.2568858861923218,1.207003799933195,-0.1202951894193887,0.2078491158403456,-0.1659447252750396,0.1824519336223602,0.276127278804779
1773257641217949200,17.46094921875,0.0792062231838703,0.0131436322767287,0.0498491957962512,-0.0126180807128548,0.0039600264281034,0.0133929215371608,-0.82739131937325,0.1187218026228249,0.1913800289353355,-0.0780375525355339,-0.0858716443181037,0.2853268384933471,0.9312240342915058,-0.2015519153922796,0.3033931642323732,-0.2748995125293731,-0.3708840906620025,0.3245055079460144
1773257641227976400,17.4709765625,0.0867167449444532,0.0174634682372212,0.0435346058219671,-0.0076732765883207,0.0008160565048456,0.0106579819694161,-0.3472463344842195,0.1502649418778717,0.283806968220137,-0.0539598576724529,-0.0232810229063034,0.2437199652194976,0.0304407309710979,-0.8658768251121044,0.5283616110473871,-0.3909435570240021,-0.4793756604194641,0.3092690408229828
1773257641238002200,17.481002197265624,0.0875373406123369,0.0079720748577266,0.0411304672896862,-0.0057547353208065,0.0003990055993199,0.0082994857802987,-0.1322901631176471,0.0865986715227365,0.1507035524908453,-0.0488316752016544,0.0512219741940498,0.175049290060997,0.1016647232294082,0.0536427428603172,0.5138191448234022,-0.374601811170578,-0.4982359707355499,0.2994102239608764
1773257641248029200,17.491029296875,0.0850783300876617,0.0020791443616151,0.0432324080049991,-0.0045812330208718,-4.66499477624e-05,0.0069078467786312,-0.0557259788751602,0.00617313567698,0.0632315595991443,-0.0562416724860668,0.1134697124361991,0.1038957685232162,-0.1442810451626777,0.290534267181158,0.4833537178024649,-0.2085712999105453,-0.3971748650074005,0.3293436169624328
1773257641258055200,17.50105517578125,0.0730879594992846,-0.0098084599720314,0.0348655616760253,-0.0062587577849626,-0.0004059104248881,0.0057682804763317,-0.0032978725016117,-0.0100853406846523,0.0292511375940404,-0.0656373053789138,0.1594150960445404,0.0502442568540573,-0.5506511842668056,0.4523194048523902,0.7251350599914789,0.0282811392098665,-0.0936724543571472,0.3515403270721435
1773257641268082200,17.511082275390624,0.0803992323607206,-0.022436361278966,0.0335351898550987,-0.0062893843278288,-0.0005310787819325,0.0072631128132343,-0.0166185418456792,-0.0069166475206613,0.0452235270232893,-0.0699532255530357,0.1894134730100631,0.0210757199674844,-0.3794704417407512,0.5775970588594674,0.9655674717895686,0.2487855404615402,0.3331592977046966,0.3655871748924255
1773257641278109400,17.521109375,0.0709234749417752,-0.0221749338638037,0.0296755918174982,-0.0089019453153014,-0.0028901067562401,0.0060764076188206,-0.0070382280737161,0.0456042517028748,0.1022291704454459,-0.069566398859024,0.1872067004442215,0.0115433279424905,-0.023429975426197,0.1569400357276201,0.7475703252919018,0.3750592768192291,0.6505007147789001,0.3640324771404266
1773257641288135200,17.53113525390625,0.0786806649398058,-0.0178881599226966,0.0206517428845167,-0.0059540555812418,-0.0050998940132558,0.0060539627447724,-0.0229348853856325,0.1180690378025174,0.1197017535708844,-0.0703117400407791,0.1783081442117691,0.0178986210376024,0.7857593323022126,-0.3661088558644056,0.2393713584378361,0.3430371582508087,0.6167177557945251,0.2973341345787048
1773257641298162200,17.541162109375,0.0796994865935295,0.0080638447944074,0.0164519531071186,-0.007896832190454,-0.0042655258439481,0.003616371192038,-0.071686933594942,0.1268070555314421,0.1351665770704858,-0.0648703724145889,0.1756537705659866,0.0307648852467536,1.5841121887177227,-0.5345639728188515,0.0786217012941837,0.2202821671962738,0.4336304068565368,0.1730419397354126
1773257641308188200,17.551188232421875,0.0674983227986842,0.038105895304121,0.0185077165931463,-0.0057623051106929,-0.0067384243011474,0.0038153948262333,-0.0452028312951326,0.179449827568978,0.1794677650844678,-0.0482917204499244,0.1665024161338806,0.0319995805621147,1.5702520056694744,-0.5794716205596924,0.0665090925656259,0.1113543584942817,0.3000691533088684,0.0438948646187782
1773257641318215200,17.561215087890623,0.0573299069404602,0.053614247418195,0.0272112475305795,-0.0043236650526523,0.0002262741327285,0.0030686445534229,0.0569873771131038,0.2164198141783475,0.2693548288944177,-0.0217930022627115,0.1342542022466659,0.0274293273687362,1.1506196494102476,-0.5412450580179691,0.035321196489036,0.0503829643130302,0.2152381837368011,-0.0768641158938407
1773257641328242200,17.5712421875,0.0633721097141504,0.055929355960153,0.0351473012268543,-0.0056090201251208,8.5355713963e-06,0.0052368603646755,0.1416612180531024,0.2151385421961545,0.3185072197992354,-0.00161525583826,0.1054838150739669,0.0275736413896083,0.8781640597552061,-0.4281669603705406,-0.0402884635075926,0.0051294672302901,0.1422254890203476,-0.165431261062622
1773257641338268200,17.58126806640625,0.0767804573416709,0.0472159246832132,0.0450239675968885,-0.0024300049990415,-0.0056935586035251,0.0034818379208445,0.1401005446076393,0.1672699988231062,0.2733563561533577,0.0097473878413438,0.073455311357975,0.0318469479680061,0.6713894412785768,-0.2882324199795723,-0.1037557041592895,0.0062915445305407,0.149376556277275,-0.2359915822744369
1773257641348295200,17.591295166015627,0.0599824672758579,0.0346559740459546,0.0404378088504076,-0.0020722355693578,-0.0089266998693346,0.0045779524371027,0.1459071850597858,0.0736031424798071,0.2079232770550995,0.0058215269818902,0.0316824987530708,0.0373014658689498,0.3749842362374067,-0.084275781533122,0.0778363961353898,0.0589643418788909,0.144188717007637,-0.2808139324188232
1773257641358321200,17.601321044921875,0.0571229861915111,0.0269550808124244,0.0384147785902023,-0.0012045778566971,-0.0117054423317313,0.0062317755073308,0.0924976664334535,0.0341797713689506,0.1817473639216273,-0.0028537204489111,0.0154654458165168,0.0418006107211113,-0.0064221420019865,0.3128694331079721,0.2055555980756878,0.1168984398245811,0.0203601196408271,-0.3094821274280548
1773257641368348200,17.61134814453125,0.0605436448225751,0.0202365496797487,0.0335597397744655,0.0005578689742833,-0.0110172759741544,0.0081632612273097,0.0752969407856464,-0.0050021922014653,0.1336391848401166,-0.0078333178535103,0.0227772276848554,0.0353328809142112,-0.0618096827030181,0.4065595241963863,0.0605994301304221,0.1368939876556396,-0.1058670580387115,-0.3565329909324646
1773257641378374100,17.6213740234375,0.0558165797680616,0.016811141808331,0.0464987163245677,-0.0032587070018053,-0.0113560296595096,0.0139103634282946,0.1275263097167015,-0.0411662692554295,0.1007615273119881,-0.00972256436944,0.0292638875544071,0.0153498500585556,0.16040917314291,0.1482388428777456,-0.1707835599020123,0.1407576650381088,-0.1370541304349899,-0.4297508895397186
1773257641388401200,17.631401123046874,0.0461181925743818,0.0104025168750435,0.0371364292174577,-0.0046573895961046,-0.0082648247480392,0.0170648507773876,0.1798866115510463,-0.0763132782213389,0.1074314152636565,-0.0072154272347688,0.0355418808758258,-0.009602416306734,0.4211392536908387,-0.1356838972091674,-0.4062625870764255,0.121670514345169,-0.200555607676506,-0.5146295428276062
1773257641398428200,17.64142822265625,0.0353974765956401,-0.0039967049533501,0.023694763842225,-0.0018919633002951,-0.0026974859647452,0.0180547479540109,0.2193348248422145,-0.0954924643352627,0.12473556475332,-0.0054375007748603,0.0275481343269348,-0.0311601720750331,0.7301876672059298,-0.4154454259634018,-0.6463143289938569,0.0200406443327665,-0.3759725093841553,-0.6147124171257019
1773257641408454100,17.6514541015625,0.0429618109026923,0.0038939386986196,0.0256570038259029,-0.0039262818172574,-0.0003559421747922,0.0166680850088596,0.1906038203984499,-0.1331030869357287,0.1110222245635464,-0.0104526681825518,0.0028709783218801,-0.0370652787387371,0.7821300358891486,-0.5902537113368511,-0.6888276289440691,-0.1546118557453155,-0.5746824145317078,-0.7168518304824829
1773257641418481200,17.661481201171874,0.047070999787189,0.0182173918770626,0.0262508780658245,-0.0044333478435873,0.0025136140175163,0.0156803168356418,0.0530582209706306,-0.1823933336749672,0.0533660813434049,-0.0212366059422492,-0.0094948764890432,-0.024963341653347,0.6281120250880717,-0.4980757783770561,-0.8046895120911299,-0.3242413401603699,-0.717555820941925,-0.7948364019393921
1773257641428507400,17.67150732421875,0.0461871661573648,0.0383759078845381,0.0365571680247783,-0.0044075115583837,0.0046511804684996,0.0134747680276632,-0.0632499446392059,-0.1813480624057352,-0.0099855335719883,-0.0256760250777006,-0.011408282443881,-0.0110079487785696,0.5160492419630289,-0.3760843064337968,-0.6394459045290947,-0.4432521462440491,-0.8242732286453247,-0.8224000930786133
1773257641438534100,17.6815341796875,0.0514099057743325,0.0542590846603736,0.0320434899926185,-0.0037904572673141,0.001415439415723,0.0145450923591852,-0.121359603780508,-0.1658053330980241,-0.036188316446077,-0.0184617880731821,-0.0169833451509475,-0.0005324046360328,0.160077164709568,-0.2199935810118913,-0.5172860902816057,-0.5006737112998962,-0.9474478363990784,-0.8166108727455139
1773257641448561200,17.69156103515625,0.0467331096023321,0.0599495513869449,0.0229284556448459,-0.0024650054983794,0.0002307523973286,0.0150611335411667,-0.0995733039081096,-0.1248445232868194,0.0267659331821836,-0.0003061774186789,-0.0277399364858865,0.0013989038998261,-0.1200678104043006,-0.0110153150111436,-0.4381685682944953,-0.5351371765136719,-1.0151056051254272,-0.8058245182037354
1773257641458587100,17.701587158203125,0.0478220738828182,0.0556157599663361,0.0117296007603406,-0.0047374805435538,-0.0058769416064023,0.0173575766384601,-0.0355611427247524,-0.1068495785214006,0.0443568819902837,-0.0042284810915589,0.0264037251472473,0.0644274055957794,-0.1345931793630123,0.2430897944390773,-0.3724206693597138,-0.5349885821342468,-1.1016268730163574,-0.8172658085823059
1773257641468614100,17.7116142578125,0.0497101161191239,0.0467182042941451,-0.01352116035223,-7.85499578341e-05,-0.0041867461986839,0.0186360776424407,-0.588079289907217,-0.0370784154199063,-0.2479569072850979,0.0004165647551417,0.0510563254356384,0.1582040041685104,-0.0894891322672367,0.4180401186317205,-0.2585490832470357,-0.504784882068634,-1.1746541261672974,-0.7941359877586365
1773257641478640400,17.721640380859377,0.0445932480294257,0.0259875144219025,-0.0057025955557823,-0.0025097499601542,-0.0047800983302295,0.019771384075284,-0.8721259486347437,-0.1131654836699366,-0.2720942637956701,0.0034706778824329,0.0441230535507202,0.1967114359140396,-0.6326029067665339,0.3330798619657755,0.1690025217041373,-0.4764358699321747,-1.0811457633972168,-0.692463755607605
1773257641488667100,17.731667236328125,0.0341139030585065,0.0121138873701915,0.0043687166035175,-0.0020820396021008,-0.005330613348633,0.018577916547656,-0.3610416356027126,-0.2059374370001256,-0.2208751130867749,-0.0045463307760655,0.0571501068770885,0.192020907998085,-0.7568745986014604,0.2580038704544306,-0.0525013177402317,-0.4479030072689056,-0.9721386432647704,-0.5197388529777527
1773257641498694100,17.741694091796877,0.0358196109978482,-0.0022605288105085,0.0162193133950233,-0.0045819487422704,-0.0022309604100883,0.0193124171346426,-0.0395534272313118,-0.2404689444161951,-0.2180016034770756,-0.0035436507314443,0.0797944292426109,0.1617351770401001,-0.9394161085754632,0.0992594156533479,-0.2811965299934149,-0.4526821672916412,-0.8441312909126282,-0.2955449223518371
1773257641508720000,17.75172021484375,0.0438801313240081,0.0079956749290227,0.0439122069627046,-0.0042542302981019,3.6926940083e-06,0.0129400622099637,-0.0051104748815298,-0.2725432679384946,-0.2120929456888698,-0.0077185165137052,0.120047777891159,0.1430113911628723,-1.088085744085908,0.0863467425882816,-0.3392519747294485,-0.520574152469635,-0.7299839854240417,-0.0813713818788528
1773257641518747400,17.761747314453125,0.0692143329363316,0.0133986299511045,0.0662163932293653,-0.0072726570069789,0.0014484575949609,0.0154956318438053,-0.1296633217453956,-0.2775238328300416,-0.301700425372459,-0.0217094328254461,0.1518946588039398,0.1375950574874878,-0.7375158181369305,-0.1496650762885809,-0.7064085860811173,-0.7331917881965637,-0.821582555770874,0.066106416285038
1773257641528773400,17.7717734375,0.0711081838589161,0.0122751058138906,0.0938981808811426,-0.0034515531733632,-0.0022394880652427,0.0141254346817731,-0.2091068608164787,-0.312810834788531,-0.3325968642218038,-0.0381893068552017,0.1801984161138534,0.1317746490240097,-0.3808978441953659,-0.4532850350141525,-1.356706577883661,-1.05806303024292,-0.9978012442588806,0.1777812987565994
1773257641538800000,17.781800048828124,0.04265256229043,0.0005879559557884,0.0976648399382829,-0.0015207615215331,-0.0063229128718376,0.010975182056427,-0.1310018768727779,-0.3175963154993951,-0.2380726969294249,-0.0473460517823696,0.1740036457777023,0.1091012954711914,-0.5794131683707237,-0.4957768537849187,-1.5414073117181657,-1.3513658046722412,-1.1176046133041382,0.2741626799106598
1773257641548827100,17.7918271484375,0.0435801985293626,-0.0110809641258791,0.0855886176973581,-0.0023400261998176,-0.0089805349707603,0.006433225236833,0.0882055221974849,-0.2822990844078362,-0.1132929825071245,-0.0507419407367706,0.1634660512208938,0.0719093084335327,-0.569473958158493,-0.361141588845849,-1.3958281895689666,-1.4708924293518066,-1.090712070465088,0.350651353597641
1773257641558853000,17.80185302734375,0.041438510325551,-0.0174089250383898,0.0569084666579961,-0.0017123193247243,-0.011112661100924,0.0080787921324372,0.2712894684851169,-0.2668633226059377,0.0009978153983131,-0.0440880320966243,0.1440111249685287,0.0406656377017498,-0.4073158955216407,-0.2929717234611511,-0.5329544917955994,-1.3464410305023191,-0.8505091667175293,0.3796969354152679
1773257641568880400,17.81188037109375,0.0408020025203004,-0.0171598821807652,0.0176122290581464,-0.0008456169161945,-0.0082686264067888,0.0099366595968604,0.3835644330561161,-0.2246072122871875,0.0886769025688991,-0.0440691225230693,0.1087423488497734,0.0169648379087448,-0.1236532676756382,-0.0371744231402874,0.7161532966345548,-1.0428651571273804,-0.522973358631134,0.3581399619579315
1773257641578906400,17.82190625,0.0313625219911336,-0.0285591915408149,-0.0004547580301761,0.0007565408595837,-0.0066358433105051,0.0099233435466885,0.3655898004263639,-0.1709533635109663,0.1029308341750875,-0.0444342419505119,0.0660934224724769,0.0172332823276519,0.1013736313283443,0.2707493702590465,1.5113674166329203,-0.6686822175979614,-0.2352016419172287,0.2875827848911285
1773257641588933000,17.83193310546875,0.013608838635683,-0.0177814846778288,-0.014037877702713,-0.0032812608405947,-0.0050219534896314,0.0033363802358508,0.2901788778722286,-0.1378679632499814,0.1937969904165714,-0.0416815616190433,0.0281863734126091,0.0346993133425712,0.2376011338949203,0.4035053973227739,1.7721283307105302,-0.3480264544486999,-0.0314232110977172,0.1798390448093414
1773257641598959000,17.841958984375,0.0074906845489516,-0.0006801642838865,-0.0074415481775999,-0.002323055639863,-0.0026384242810308,-0.0021534604020416,0.1785632539927959,-0.0482372305549681,0.2057500612018629,-0.0331344120204448,0.0246073510497808,0.0729670748114585,0.4353898973613977,0.4083569290071726,1.341584704336524,-0.1821022033691406,0.0400122702121734,0.0684495568275451
1773257641608986000,17.851986083984375,0.0166016272434964,0.0016881357500329,0.006624386575818,-0.0030688638798892,-0.0033739525824785,-0.0019724741578102,-0.056101241928339,0.0061537003241479,0.2278434542620554,-0.0206797029823064,0.0317637361586093,0.1054524108767509,0.4298164811432361,0.2811743181616067,0.4770179389096796,-0.1966553032398224,-0.0116748921573162,-0.0118780378252267
1773257641619013400,17.862013427734375,0.0137076593676581,0.0128015408407896,0.0221802676260471,-0.0053192349150776,-0.0033648982644081,-0.0037866192869842,-0.120458855548501,0.037610622600466,0.2324122234823182,-0.0098097445443272,0.0407851934432983,0.1271774023771286,0.2417810499280691,0.1543961964637041,-0.2983623304583132,-0.3199086189270019,-0.1200532093644142,-0.0273745264858007
1773257641629039400,17.872039306640627,0.026665231020376,0.0090270638033747,0.0438689523428678,-0.0056962985545396,-0.0033676116727292,-0.0042968709021806,-0.0813876588761806,0.0719306792229414,0.2354550252443179,0.0018220676574856,0.0348536595702171,0.1239537298679351,-0.0562269141346216,0.0512234067589044,-0.77569328083992,-0.4930375218391418,-0.2124694138765335,0.0227605439722538
1773257641639066000,17.882066162109375,0.0420638756822794,-0.0076398837612941,0.0506032290339469,-0.0069413259625434,-0.0050563220866024,-0.0050316369161009,0.0789998869568109,0.0528662055298686,0.2712574293790385,0.0168811790645122,0.0213274676352739,0.0929779708385467,-0.3936737391382455,-0.0519932220876216,-1.0091491316236556,-0.6775698661804199,-0.2904609441757202,0.1232395395636558
1773257641649092000,17.892092041015626,0.0456926606386899,-0.0069856211036443,0.0497147557616233,-0.0060794414021074,-0.0065286550670862,-0.0085204690694808,0.2443009237945079,0.0363677829325199,0.3576856397056951,0.0200032200664281,-7.03062105458e-05,0.0528318583965301,-0.5643617297112942,-0.1343693074792623,-1.0510831703811885,-0.847757875919342,-0.3775830864906311,0.242112934589386
1773257641659119000,17.902119140625,0.0482400070339441,-0.010076572856307,0.054967269462347,-0.004597392398864,-0.0046705668792128,-0.0076759811490774,0.2202881800442934,-0.0292415843144059,0.3223292257728055,0.0177866723388433,-0.0061875870451331,0.0371248051524162,-0.561059181034565,-0.0470382300287485,-0.8994162527509033,-0.9825039505958556,-0.4456537365913391,0.361489474773407
1773257641669146400,17.912146484375,0.0512275349447503,-0.0137587319677695,0.0477916787445545,-0.007058878429234,-0.0019922866486012,-0.0071243159472942,0.0056008887469768,-0.0880199364975094,0.1995298715127632,0.0071347341872751,-0.0029935606289654,0.0478870123624801,-0.5193032753229141,0.1661082615673542,-0.4510300956942141,-1.056070327758789,-0.4728347361087799,0.4759183228015899
1773257641679172400,17.92217236328125,0.0507505650827661,-0.0020719839684665,0.0518242952615022,-0.0036159437149763,-0.0026420974172651,-0.0079235304147005,-0.2114993089109659,-0.0989656934037804,0.1150389493916183,-0.0013823215849697,-0.0055307541042566,0.0653445646166801,-0.5792553474605083,0.444977225396037,-0.1666726174518465,-1.1003555059432983,-0.4953484237194061,0.5858752727508545
1773257641689199000,17.93219921875,0.0483826303750276,0.0098211002578958,0.0480769254267215,-0.0036671226844191,-0.0010166810825467,-0.0066640269942581,-0.2975619738608598,-0.0734479519180953,0.1219154110323637,3.14929056912e-05,-0.0052870181389153,0.0753184258937835,-0.8382581658244133,0.7575520594716072,-0.3146713679634034,-1.151935338973999,-0.4997122883796692,0.7089860439300537
1773257641699225000,17.94222509765625,0.0377017349500209,0.0104372593948617,0.0350584538996219,-0.0036418228410184,-0.0026164422743022,-0.0099482368677854,-0.3258832284599542,-0.0621694559261202,0.207968467903696,0.0068081724457442,0.0045014303177595,0.0806308984756469,-1.137776534450054,0.8451262980282306,-0.6823042185246944,-1.2044718265533447,-0.4160088896751404,0.8125353455543518
1773257641709252000,17.952252197265626,0.030724260620214,0.0234054985720664,0.0353881242454051,-0.0003999171312898,-0.0092586819082498,-0.008598537184298,-0.3606225334078073,-0.000528553918749,0.2526005501061678,0.0096196718513965,0.0218553859740495,0.0879873484373092,-1.2468167548835276,0.7630939115077257,-0.936871100267768,-1.2372335195541382,-0.3023574352264404,0.8994407057762146
1773257641719279400,17.962279296875,0.0426415294397622,0.0263639465188607,0.033193244549632,0.0018017182592302,-0.0091124745085835,-0.0100792543962597,-0.4279156159579753,-0.011293401300162,0.1600894396692514,0.0080055296421051,0.0490824803709983,0.0979204028844833,-1.211860007792711,0.5944646070301532,-1.2153738611325622,-1.2687385082244873,-0.1888893097639084,0.9676105976104736
1773257641729305300,17.972305419921874,0.040879159409739,0.0189329562678933,0.0238327110081911,0.0020693293772637,-0.0083937915042042,-0.0097188539803028,-0.4163356528013944,-0.1130515019014477,0.0687421488473191,-0.0003652789164334,0.0643266960978508,0.096405304968357,-1.2059265260905028,0.5372849222153425,-1.453649241027236,-1.3058544397354126,-0.1066157519817352,1.0102510452270508
1773257641739332000,17.98233203125,0.0623790070235729,0.0099205785769969,0.0249485632956027,0.003163622226566,-0.0097312312573194,-0.0095252422615885,-0.2050549550771713,-0.1884565792366862,-0.0673348028000444,-0.0101768970489501,0.0737348422408104,0.0799429789185524,-1.267241703274846,0.7184253332197665,-1.621993298822641,-1.2995877265930176,-0.0824703946709632,1.0306589603424072
1773257641749358000,17.992358154296873,0.0697527871945872,0.0023398045917972,0.0197889885753393,0.0021925172768533,-0.0081423930823802,-0.0083757685497403,0.0241167886465787,-0.2881948644481599,-0.1297974695190787,-0.0117480102926492,0.0692741647362709,0.0444532595574855,-1.1438690061062573,0.9689648591428994,-1.5023413757428523,-1.3331084251403809,-0.1119385436177253,1.0308173894882202
1773257641759385000,18.002385009765625,0.043344672740437,-0.0054057680336758,0.0107335754603147,0.004532903432846,-0.0028131413273513,-0.0098450342193245,0.3096305973172187,-0.3078697251245379,-0.130978349866718,-0.0099834008142352,0.0060885371640324,0.0008866079733707,-1.0446464153319597,1.2782295457571744,-1.6356639506481587,-1.4624687433242798,-0.2243947684764862,1.0269945859909058
1773257641769412400,18.012412353515625,0.0476538046438246,-0.0098459424382075,0.0275987855434417,0.0027127186767756,-0.0060213226824998,-0.0095535097643733,0.7927601509749889,-0.1974868579104542,-0.1091076596464961,-0.0117448894307017,-0.027214802801609,0.0085917580872774,-1.2256839504837989,1.5332599533587694,-1.9419792859375475,-1.602259397506714,-0.3089256286621094,1.0255650281906128
1773257641779438300,18.02243823242188,0.0170441103139892,0.0015006503539159,0.0392015450537204,0.0029047327116131,-0.003826611675322,-0.0117354374378919,0.7135615265756845,-0.1114820606276392,-0.0183421873005107,0.0187610872089862,-0.0561543069779872,0.0894913971424102,-1.342287884169817,1.5406132387310263,-1.8975972695060075,-1.7366206645965576,-0.351461112499237,1.0328140258789062
1773257641789465000,18.032465087890625,0.0231084883868694,0.0020651889014989,0.0421270771116018,0.0023990045301616,-0.005721484310925,-0.0121155912056565,0.0728203215390443,0.2089383723817765,0.0479481479478999,0.0502287708222866,-0.0759531930088996,0.1806460320949554,-1.2792916220307349,1.4775234530895949,-1.864795216231048,-1.920374035835266,-0.3973609805107116,1.0405406951904297
1773257641799491000,18.04249096679688,0.030871560136415,0.012474172049947,0.0529985997378826,0.0021057904232293,-0.0074911545962095,-0.0088598765432834,-0.1939326725602149,0.2845331270702183,0.1193877557182684,0.0794923827052116,-0.0497761815786361,0.2467158734798431,-1.149323179858923,1.560776905837655,-2.0015011499643323,-2.1060004234313965,-0.3783604800701141,1.0511436462402344
1773257641809518000,18.05251806640625,0.0282827492196112,0.0055966144306585,0.0465080686748027,-0.0034838509745895,-0.007126594427973,-0.007488103583455,-0.3556348081231117,0.1644248385250568,0.0660459685659036,0.0952372103929519,0.0013398195151239,0.2578750550746918,-1.064138466787338,1.2067255675137043,-2.019101104062796,-2.1317243576049805,-0.122604064643383,1.1450482606887815
1773257641819544300,18.06254443359375,0.0095347941298037,-0.0326507717033848,0.0285047944724559,-0.0008702247869223,-0.008665369823575,-0.0059493291191756,-0.4078793746232986,0.029218057308346,-0.0408297673100605,0.1036655828356742,0.111269511282444,0.2156144231557846,-1.2767068662345409,-1.2558844429582356,-1.5539216331154106,-2.145662784576416,0.3198004364967346,1.4034876823425293
1773257641829571300,18.0725712890625,-0.01673942827899,-0.0580046643968671,0.0146428578585386,-0.0020403014495968,-0.0073332502506673,-0.0048047620803117,-0.4429442582637071,-0.1455615864925086,-0.1176151565551757,0.1131096333265304,0.1986317038536071,0.1432108730077743,-1.120145016169548,-0.2863981902897358,-1.0713693678889422,-2.084655523300171,0.4745500683784485,1.6025824546813965
1773257641839598000,18.08259814453125,-0.0400678064942359,-0.0739675553454086,-0.000587444499135,0.0008316514431498,-0.0064948867075145,-0.0024420055560767,-0.1766033520966768,-0.2454933484494686,0.0055009720364585,0.1142515987157821,0.2383112013339996,0.0866256207227706,-0.8608908533930778,1.1758207261621951,-0.1688934535727836,-1.8607252836227417,0.5218330025672913,1.695693016052246
1773257641849624000,18.0926240234375,-0.0626876345813274,-0.0590096036557108,-0.017012509599328,-0.0003805859014391,-0.0052836928516626,-0.0060438127256929,0.0189805948019027,-0.2384679798573255,0.1375776750665158,0.1118295863270759,0.2001754492521286,0.0600154399871826,-0.7049924356728792,1.7910756077647207,0.6638099459350109,-1.5842602252960205,0.6141266822814941,1.777884006500244
1773257641859651300,18.1026513671875,-0.0920288068126887,-0.0374420245679095,-0.039735798060894,6.14988384768e-05,-2.58143991231e-05,-0.009174358099699,0.1654027436465024,-0.2058040198788046,0.1826263387132436,0.1050441190600395,0.1208641231060028,0.0439999885857105,-0.7621393872618675,1.9532909535467624,1.1224045585993676,-1.230328917503357,0.7737888097763062,1.8749196529388428
1773257641869677300,18.11267724609375,-0.0889864434421062,-0.0104027726033702,-0.0322796368360519,-0.0008169646607711,0.0058846971951425,-0.013351397588849,0.5031026666283607,-0.151016052506119,0.2689238718649372,0.1117347553372383,0.0510678030550479,0.040978655219078,-0.5074392345279455,1.9555711734384296,1.631358216278255,-0.8654153943061829,0.6658873558044434,1.6713435649871826
1773257641879704300,18.122704345703124,-0.0944230815380811,0.0212103631479665,-0.0143932670116424,-0.00351900793612,0.0154339941218495,-0.0181136615574359,0.6543757626354694,-0.0077307403825223,0.3757868213245645,0.1254670768976211,-0.0270538963377475,0.0356752388179302,1.209361176714301,1.680890893471241,1.676434644714743,-0.6119121313095093,0.3579079210758209,1.0516130924224854
1773257641889731000,18.13273095703125,-0.1016583665538579,0.0486570634022355,0.0604378098279237,-0.0118128806352615,0.0220168754458427,-0.024197157472372,0.8567600371986627,0.1134844864912331,0.3350171867039054,0.1230959221720695,-0.1047834306955337,0.0239684134721755,3.2210514199987053,0.954142553064227,1.840149143013358,-0.352688580751419,0.0732948333024978,0.1810049712657928
1773257641899757000,18.142757080078123,-0.0977824019033461,0.0404973935505375,0.0590980856567621,-0.0177362840622663,0.0106736719608306,-0.0267154425382614,1.0697791030228136,0.1359570150621235,0.2002146754391491,0.1062061563134193,-0.1656057685613632,0.0111668650060892,3.731832073909044,0.9225134890913964,1.952836633908004,-0.1237686201930046,0.2915098071098327,-0.2755858302116394
1773257641909784300,18.152784423828123,-0.1196253273338079,0.0185217816511169,-0.0087906246989965,-0.0183659344911575,0.0030033313669264,-0.0290350653231143,1.1377391250491142,0.1160537524573504,0.0793588564623147,0.095611847937107,-0.198718786239624,0.0097854603081941,1.3201029403686522,1.6576000342547892,1.7665379633575675,0.3320934474468231,0.3791086375713348,-0.0881959646940231
1773257641919810300,18.16281030273437,-0.1080289975643157,-0.0508200135897845,-0.0109539402127265,-0.0180684588849544,-0.0022257855162024,-0.0303064584732055,1.1108820977836846,0.1669213315159082,0.0742689859773963,0.0957724377512931,-0.2108063399791717,0.0060397237539291,-1.0273504126161337,0.9259656753718852,2.5037732109874486,0.6845561265945435,0.5264154672622681,0.2696175575256347
1773257641929837300,18.17283740234375,-0.0899251490643247,-0.0438098060341551,-0.0108680154949426,-0.0220400746911764,-0.0004511210136115,-0.039476603269577,1.0243728581100702,0.2413024726308882,0.0977654507685452,0.0920483618974685,-0.2244783043861389,-0.0017703766934573,-1.2432272059589624,0.1339466981530189,2.222341849324852,0.7144548892974854,0.9088442921638488,0.808976948261261
1773257641939864000,18.182864013671875,-0.0313367664953693,-0.0530446308366954,-0.0304220262706279,-0.0247620902955532,0.0054637594148516,-0.0494786389172077,0.9095353495746852,0.2298303537629544,0.0447336428808048,0.1089173629879951,-0.2313058525323867,8.55802791193e-05,-1.2565280015587803,-0.4779729015469551,1.3362179166063666,0.5732200145721436,0.9470741748809814,1.0275652408599854
1773257641949890000,18.19289013671875,0.054057168880105,-0.0554823428450152,-0.0612882891774177,-0.0304366815835237,0.0265615284442901,-0.0600091889500618,0.6847288153231144,0.310611132787168,0.1144341153662651,0.131324365735054,-0.258096694946289,-0.0028432998806238,-0.1520288828104734,0.7574579514473676,1.443680512459576,0.4816363155841827,0.6570860743522644,0.916218400001526
1773257641959917300,18.20291723632813,0.1245732320647686,-0.0735433020513504,-0.0897504135519266,-0.0358503572642803,0.0508732572197914,-0.0811765268445015,0.696135760000348,0.2551945121221244,0.0983602748565375,0.1263378709554672,-0.3063552975654602,-0.0220473557710647,1.1794961998045443,1.8392828815728424,1.4337562075555323,0.3559928834438324,0.2179559171199798,0.6807476878166199
1773257641969943300,18.212943359375,0.1575081910043954,-0.0700233112316578,-0.0847170955598354,-0.0403908863663673,0.0751083567738533,-0.1011238396167755,0.8810901763349771,0.0788904352329671,-0.0548894549857825,0.1072926670312881,-0.3530750572681427,-0.0537830367684364,0.9054255761682988,0.0674321987599134,1.4117638637170196,0.9472964406013488,0.6755133867263794,0.6001034379005432
1773257641979970300,18.22297021484375,0.1723766743123531,-0.0712274263244122,-0.0956722048163414,-0.0440772362053394,0.0893059372901916,-0.1172370314598083,1.015350178220868,-0.029187223778665,-0.0405059787157923,0.1025722101330757,-0.3391554951667785,-0.0842043235898017,0.9908844300061465,-0.0900426744967699,1.1341459959279745,1.2055984735488892,0.8686019778251648,0.5094682574272156
1773257641989997000,18.2329970703125,0.16458328048978,-0.0812062378946691,-0.0844102215677499,-0.0433942750096321,0.0990634709596633,-0.1339397579431533,0.9629021981030702,0.0565118685558438,0.0443777603815309,0.1274950057268142,-0.2847518622875213,-0.0917196571826934,1.480513867077231,-0.1790180120229721,0.4544681803841143,1.535401701927185,0.8564579486846924,0.1802107244729995
1773257642000023000,18.24302294921875,0.1821598537126555,-0.1008615901529789,-0.0929506708979606,-0.0409921035170555,0.1036220043897628,-0.1489418894052505,0.6202069510519505,0.1295705288954079,0.0770122020046226,0.20867720246315,-0.2303850501775741,-0.0877643302083015,2.4252894568592307,-0.0945879167109727,0.3806811692373827,1.9171559810638428,0.8063206672668457,-0.2545690834522247
1773257642010050300,18.25305029296875,0.2174533219445496,-0.083698054710403,-0.1007657285630703,-0.039251621812582,0.1045321896672248,-0.1530599445104599,0.4859072016775608,-0.252227040618658,0.4042194638762623,0.2834307551383972,-0.1794476956129074,-0.1155349388718605,2.9164772292882204,-0.0353425315380096,0.5923199962168931,2.200647592544556,0.8063883185386658,-0.6010405421257019
1773257642020076300,18.263076171875,0.228596062727645,-0.0632985695539042,-0.0768687201470136,-0.0396750643849372,0.1084188073873519,-0.1489370912313461,0.7941133191496134,-0.429533280287683,0.2471204747272655,0.2103861272335052,-0.1489614248275756,-0.1898174285888672,2.4251094241172075,-0.3604787410229444,0.6919928149767219,2.224533796310425,0.939736306667328,-0.8512891530990601
1773257642030103300,18.273103271484374,0.2362217353004962,-0.0325284604979679,-0.0537327592313289,-0.0352001897990703,0.1072011068463325,-0.1423145532608032,0.9980834015995264,0.1793086655326187,-0.7510942616343498,0.163411796092987,-0.0975954383611679,-0.2236191779375076,1.677940226972103,-1.00473467618227,0.5796102618454024,2.223331928253174,1.2494118213653564,-1.0643402338027954
1773257642040129300,18.28312939453125,0.2150743178535252,0.0192031149787828,-0.0521381835162639,-0.0328627340495586,0.1075041741132736,-0.1331080049276352,0.6151794782787561,0.0131961661815643,-0.4441431126594543,0.171704888343811,-0.0481991283595562,-0.2083978801965713,1.0583061073720454,-0.0800122788697481,0.6879007233574986,2.524449110031128,1.430557131767273,-1.1939517259597778
1773257642050156000,18.293156005859377,0.1829799013912677,0.0619789383227005,-0.0140291098743677,-0.0246785804629325,0.1084435135126113,-0.1223404556512832,0.417086178907752,-0.2065621447697281,-0.1023925443136133,0.1697101145982742,-0.045613944530487,-0.1798072010278701,0.2271639110326767,1.431052793815732,1.407186911190301,2.802022933959961,1.373566746711731,-1.2906780242919922
1773257642060183300,18.303183349609377,0.1256581777572631,0.0965031392151489,0.0547574261039495,-0.0178683456033468,0.1101053282618522,-0.1167297065258026,0.5441191521495581,-0.1375723413042724,-0.1532807095024734,0.1530856043100357,-0.0618539005517959,-0.1593706309795379,-0.6273696822881698,1.4123288041234014,1.0140634994111954,2.8530027866363525,1.1609615087509155,-1.287282943725586
1773257642070209300,18.313209228515625,0.1167951454091817,0.1127124061401933,0.0868932705551385,-0.0085628749802708,0.1131856590509414,-0.1107769981026649,0.6713304045677184,0.0050014615491032,-0.1517488968253135,0.1518026441335678,-0.1076209545135498,-0.1288759708404541,-0.928482042106986,1.027298974689841,0.2102006474025547,2.4856274127960205,1.0089179277420044,-0.998975932598114
1773257642080236300,18.323236328125,0.1388544170040637,0.1612265904730185,0.1305348438829183,-0.0097541073337197,0.113439992070198,-0.102292962372303,0.6598147388190031,0.0522220624074339,0.0098396770942024,0.1638111025094986,-0.1572193950414657,-0.0856291651725769,-1.7268191164314746,-0.2629091781526804,-0.6848958424530923,2.028039693832397,0.8674732446670532,-0.668034553527832
1773257642090262300,18.33326220703125,0.154267601647973,0.2233355483835563,0.1802858400017023,-0.0111700408160686,0.1135111898183822,-0.0866100937128067,0.6789391260057688,0.0185438108198344,0.0112279531148262,0.1586503684520721,-0.2057588100433349,-0.0435248203575611,-1.80450499818027,-0.550937599992752,-0.8109332287862896,1.683567762374878,0.794998288154602,-0.4584968090057373
1773257642100289000,18.3432890625,0.17972360300906,0.2804310255136341,0.2233434759616851,-0.009896783158183,0.1017205789685249,-0.0702977031469345,0.8214215973138809,0.0478805260717868,-0.0955567617431283,0.1429238617420196,-0.2251751273870468,-0.0178452916443347,-1.735628445830941,0.539910010021925,-1.1105632410928603,1.4344862699508667,0.6822367906570435,-0.1464100480079651
1773257642110316300,18.35331640625,0.2035458656884729,0.3093997111707925,0.2422165187358856,-0.0111230220645666,0.0936763733625412,-0.0430147051811218,0.9905915845394134,0.1194650222055613,-0.1402084802278317,0.1371588110923767,-0.2100682258605957,-0.0137180862948298,-2.337772501447797,0.9065525343716144,-1.35820426909551,1.2759215831756592,0.5660289525985718,0.2893590033054352
1773257642120342300,18.36334228515625,0.224216094077751,0.3210735266232863,0.2307435230851173,-0.0142453117296099,0.0869814530014991,-0.0129737155511975,1.036311133185029,0.1717749090269207,-0.0819839260025881,0.1759996861219406,-0.1529426127672195,-0.006931553594768,-2.713988325306773,0.6268845291197299,-1.0130778493747117,1.181814670562744,0.453540176153183,0.69956374168396
1773257642130369300,18.373369384765624,0.2149345440566539,0.3363918360579758,0.2030056213319301,-0.0147601701319217,0.0772309973835945,0.0156371183693408,0.8031699013084173,0.0827719528414308,0.0327842618899419,0.2129579484462738,-0.0665096864104271,-0.0137507813051342,-2.4247896906435487,0.6470633937954903,-0.8620569745630026,1.131323218345642,0.3600336611270904,1.0420048236846924
1773257642140395300,18.38339526367188,0.1986462570786476,0.3466992585280909,0.1661889255881309,-0.0149649679660797,0.0699879974126815,0.0479095689952373,0.7851999448537826,0.1542738852582871,-0.2070499830855987,0.2688449025154114,-0.0029682607855647,-0.0474845133721828,-1.9410972424060104,0.5780377883642912,-0.783086021439731,1.1085761785507202,0.2806741297245025,1.2905186414718628
1773257642150422000,18.393422119140624,0.2053156518399715,0.335926775829494,0.1202881751567125,-0.0140925198793411,0.0660733059048652,0.0817654579877853,0.8783540293693543,0.225565974316746,-0.2170654734044335,0.2665409445762634,0.0620400868356227,-0.1052734553813934,-1.230068449178338,-0.0592442161291837,-0.7856985420256852,1.0840420722961426,0.2062915116548538,1.4470057487487793
1773257642160449300,18.40344921875,0.2041612941730767,0.3221250084375962,0.0721527975410223,-0.017890453338623,0.065894603729248,0.1093009412288665,0.9925082318156956,0.0985180957667529,-0.271512335721869,0.2252180129289627,0.0630670115351677,-0.1478238403797149,-0.7116080544203519,-0.4856435823053121,-0.8486324064530432,1.0643367767333984,0.0839123278856277,1.573824763298035
1773257642170475300,18.413475341796875,0.1558429612059146,0.3031238823043182,0.0201402862310409,-0.012803859077394,0.0618279017508029,0.1369164884090423,0.90499419901371,-0.0540140603907406,-0.275658367751725,0.1948608011007309,0.0190559104084968,-0.1700156182050705,-0.4611743269592523,-0.5409089579313993,-0.8758613357707857,0.9171504974365234,-0.0627077370882034,1.667880654335022
1773257642180502300,18.423502197265623,0.0974280355077236,0.2688238090239465,-0.0280751708835363,-0.0086687691509723,0.0541028715670108,0.1568063050508499,0.6919926688462495,-0.0481989443711936,-0.1733748002379201,0.1827839016914367,-0.0094793271273374,-0.1767752468585968,0.0376367799550294,-0.9287415698260068,-1.5523820024579762,0.6309093236923218,-0.242886796593666,1.6623079776763916
1773257642190528300,18.4335283203125,0.0555570520490407,0.2364766599096357,-0.0425204603433609,-0.0048924065195024,0.0404509752988815,0.1743789166212082,0.513012650746107,0.0996738416731357,-0.0838638214650563,0.1927182376384735,-0.0335363447666168,-0.1644836217164993,0.4218278204768896,-1.4200263728886842,-2.463721771106124,0.2263077795505523,-0.3866769969463348,1.6340808868408203
1773257642200555300,18.44355517578125,0.0280593887925147,0.2164667220599949,-0.0303968918293714,-0.0014595920220017,0.0331946574151515,0.1888840943574905,0.3196832047760486,0.2290152379877865,0.033811522578448,0.2510486543178558,-0.0159432385116815,-0.1225612014532089,0.1323024380773305,-1.689520190128684,-3.074981153331697,-0.1651656776666641,-0.3277734518051147,1.6260414123535156
1773257642210581800,18.45358178710937,0.0335697497118264,0.1879320804385468,-0.0273275673866271,-0.0008818693459033,0.0229865051805973,0.2023001313209533,0.0230272398442029,0.3959697411209344,0.2088843771722167,0.334337055683136,0.0215514469891786,-0.0381844602525234,-0.1527709333494305,-1.4465198275387283,-2.784524919822812,-0.4085335731506347,-0.1802114099264145,1.6162805557250977
1773257642220608800,18.46360888671875,0.0286147576529532,0.1401315608004108,-0.0337672450453042,-0.0040481016039848,0.0177307575941085,0.2044045627117157,-0.3755763569116592,0.660163698387146,0.1901259006883948,0.4531633257865906,0.0642142221331596,0.0831089466810226,-0.0151484692931175,-1.1847270861953496,-1.4780674968384206,-0.475184679031372,-0.1944724768400192,1.5979511737823486
1773257642230635500,18.473635498046875,0.0325894334375858,0.0898023264022544,-0.0247872352540493,-0.0023848409764468,0.0183222517371177,0.2067201137542724,-0.5857657522678374,0.8050807033658027,0.2426348902784287,0.5965127348899841,0.1307253688573837,0.233086422085762,-0.0163303725540637,-0.6036638125300408,-0.293627410890907,-0.4180353879928589,-0.3312819898128509,1.5919015407562256
1773257642240661500,18.48366162109375,0.0491249731749296,0.0411213706677779,-0.0051993222087621,0.0011952463537454,0.0238531045615673,0.2040479183197021,-0.6870891147136687,1.0209653877541425,0.2256808694006875,0.7049852013587952,0.1835816502571106,0.4027175307273865,-0.182371414104104,-0.0943733971774578,0.3848312381215393,-0.3795561492443084,-0.4179665148258209,1.5403257608413696
1773257642250688800,18.49368872070313,0.0555196426481008,-0.0198715157596394,0.0399415497660636,0.0017882892861962,0.0286949332803487,0.2056124359369278,-0.8268260867059231,1.1001786252006889,-0.2265686668195761,0.8064878582954407,0.2264360785484314,0.559433102607727,-0.1156581772685051,-0.2848842785954475,0.789775874467194,-0.3415568172931671,-0.4249008595943451,1.474534273147583
1773257642260714800,18.50371484375,0.0601122311353683,-0.0595458659568801,0.0754974317938089,0.0050570531748235,0.0259899608790874,0.2033716589212417,-0.6899526874512434,0.696310093653947,-0.3123258642831817,0.8648568987846375,0.2799530923366546,0.6262246370315552,-0.0156476509869098,-0.2693506093770265,0.9896779768258332,-0.3030714988708496,-0.4778587520122528,1.458248734474182
1773257642270741800,18.51374169921875,0.0821416190486401,-0.0747698847042396,0.1104933418512344,0.0064491308294236,0.0229497589170932,0.2036412358283996,-0.0781768801361322,0.2627202314518392,-0.460290822122991,0.8314258456230164,0.1905310451984405,0.5497624278068542,0.0047922027125954,-0.1120113451987504,1.3531741659738123,-0.2610396146774292,-0.5036339163780212,1.4465316534042358
1773257642280768500,18.5237685546875,0.1175186373781412,-0.0817978836448863,0.147469612070918,0.0050621563568711,0.0153927747160196,0.2006158828735351,1.0204898791968822,-0.2045271318107843,-0.6928223976686596,0.6663082838058472,0.0145525513216853,0.3840610980987549,0.203343474984169,-0.1248579672902822,2.0209683592393994,-0.1815770417451858,-0.4099521040916443,1.451034665107727
1773257642290794500,18.53379443359375,0.0790174956787377,-0.0837900073101744,0.1610527317434549,0.0079505806788802,0.0006053550168871,0.1966967731714248,1.89846396933794,-0.9840345641113816,-1.0981930043414234,0.4313409030437469,-0.124443769454956,0.1903381049633026,0.1896378979757428,0.8861573965966701,3.087203798305988,0.2220894694328308,-0.4701182544231415,1.496297001838684
1773257642300821800,18.54382177734375,0.0325876798719167,-0.0857196236658841,0.158883571010828,0.0056072655133903,-0.0120337409898638,0.1855453252792358,2.0240116724580526,-1.401712133041024,-1.2730721629939972,0.3114107847213745,-0.1838362514972686,0.0002871992764994,0.2304778578862547,2.95092368876934,5.197831093421578,0.7021551132202148,-0.657250165939331,1.5852394104003906
1773257642310847700,18.55384765625,0.01691547896564,-0.0928778248574584,0.1385281807243824,0.003692835336551,-0.0187278557568788,0.1699652373790741,1.6197224312812089,-0.8432596273735166,-0.9032678136125206,0.2615655660629272,-0.1060789823532104,-0.1788645535707473,-0.0958075216338038,2.680977451586723,5.7979310759902,1.1856993436813354,-0.657554566860199,1.680644392967224
1773257642320874800,18.563874755859374,0.0092477938819676,-0.0925017215540632,0.1080307511299848,0.0015620401827618,-0.0207792893052101,0.156272605061531,1.5596943712979554,-0.3204904295057058,-0.6448762590147554,0.2415460646152496,-0.0330761447548866,-0.3796884417533874,-0.2995809124678373,3.345952934169769,5.666965439474582,1.5987257957458496,-0.3691544532775879,1.819532871246338
1773257642330901500,18.573901611328125,0.018196750947833,-0.10632047661338,0.072878773728013,-0.0026868404820561,-0.0193437859416008,0.1383049339056015,1.935016461187601,-0.3305534122280776,-0.5621509583266452,0.2615512013435364,-0.1372997313737869,-0.5524296164512634,-0.3962542571507394,4.320703390976786,4.224855245071649,1.719364047050476,0.2428695261478424,1.822211742401123
1773257642340927500,18.583927490234377,0.0453110409099608,-0.1295937636405229,0.0230225636690855,-0.00260268477723,-0.012971106916666,0.121979221701622,2.172245254638791,-0.1831115649469196,-0.4350719905186444,0.2856331169605255,-0.4128905534744262,-0.6385474801063538,-0.1448467162214219,2.940081976759433,1.0758727437227964,1.5973693132400513,0.6387693881988525,1.510252833366394
1773257642350954800,18.593954833984377,0.0851221692293882,-0.152270290350914,-0.0028010288953781,-0.0076085645705461,-0.0112194120883941,0.1132463216781616,2.344236729025841,-0.2310252626359462,-0.4206869068134576,0.360352486371994,-0.7896772027015686,-0.6029377579689026,0.6969296868570148,0.576646626266837,-1.7732815923988818,1.433907151222229,0.6707382798194885,1.2680939435958862
1773257642360980700,18.603980712890625,0.0982541110683232,-0.1664985760591924,-0.0160860424041748,-0.0152662172913551,-0.0093426834791898,0.0982758998870849,2.376584170401096,-0.4593468192711472,-0.6309905031338334,0.4945600926876068,-1.1633384227752686,-0.4491960704326629,0.7235241176635027,-0.3068447659909725,-3.672945292915404,1.0622506141662598,1.1306684017181396,1.2819972038269043
1773257642371007700,18.6140078125,0.0819920545101165,-0.158348806547001,-0.032381928166747,-0.0152541529387235,-0.0093081630766391,0.085426427423954,2.280985615342855,-0.4751275951184332,-0.7399412186529487,0.5656768679618835,-1.6311261653900146,-0.3105707466602325,-0.0004888064302504,-0.6004302374362945,-3.874131882126629,0.5092343688011169,0.8635879158973694,1.3304121494293213
1773257642381033700,18.62403369140625,0.0966267290621995,-0.1057172865558415,-0.066041621184349,-0.0097864177078008,-0.0076085333712399,0.0843923240900039,2.9830495963484047,-0.5842703991435468,-1.1768573757335543,0.6218546628952026,-2.0762603282928467,-0.2248758375644683,1.0896610305786132,-3.107880091109872,-4.230437721379101,-0.006793962791562,0.7765202522277832,1.435658574104309
1773257642391060700,18.634060791015624,0.13367189979963,-0.0823204827468842,-0.0614116232961416,-0.0090300794690847,-0.0027123116888105,0.0725146308541297,3.685673549324274,-0.8452072543099522,-1.0195292174711823,0.6564463973045349,-2.3906397819519043,-0.2244968563318252,0.5245452676296234,-2.7675743695437904,-3.057771952116489,-0.3754889070987701,1.1077430248260498,1.6212058067321775
1773257642401087700,18.644087646484376,0.1508124196927994,-0.0573368116052821,-0.0506704490512609,-0.0051498543471097,0.0026401090435683,0.0667118653655052,4.496002674737572,-1.1762165936119853,-1.0439095524247737,0.5274583101272583,-2.001425504684448,-0.3679999709129333,-0.4615887529790401,-1.4706629196703431,-1.726894519755244,-0.5127739906311035,1.516110897064209,1.8169872760772705
1773257642411113700,18.65411376953125,0.1412380972702056,-0.0515929341910406,-0.0080675711214542,-0.0045673716813325,0.0057786731049418,0.0588232949376106,5.60292697480619,-0.3385743677288294,-1.4589181213408708,0.3317148685455322,-2.2387917041778564,-0.5351225733757019,-0.6859153947591782,-0.9907686946719884,-0.8433525663539767,-0.5149617791175842,1.5677390098571775,1.934733867645264
1773257642421140700,18.664140625,0.1204717150300741,-0.038529052619636,0.028830957686901,-0.0023449638392776,0.0032992700580507,0.0512979999184608,4.339049195006489,-0.2527875971108675,-1.4673697233438492,0.1587486714124679,-2.681304216384888,-0.4763431847095489,0.0224292739510536,-0.743342916855216,-0.6740066380396484,-0.4883691072463989,1.1262612342834473,1.8652551174163816
1773257642431166700,18.67416674804688,0.0916330854933708,-0.0184370625097304,0.0620779782503843,0.0010852976702153,-0.0101283472031354,0.0485041290521621,2.600416891184449,-0.3671441902615129,-2.191116105455905,0.028543971478939,-2.9257099628448486,-0.0987025573849678,1.2721096015721558,-0.4830173254549503,-1.2338853771179914,-0.5309479832649231,0.6961207389831543,1.572177171707153
1773257642441193700,18.68419384765625,0.0863988381016999,0.0040119755877181,0.083464465150237,0.0045772343873977,-0.0214366614818573,0.0457810461521148,0.7848579995483159,-0.1860758215799927,-2.3062039354905486,-0.0888945087790489,-3.131866693496704,0.4559816718101501,1.4110311655282974,-0.3592980068057775,-1.4314362401753664,-0.5954030752182007,0.3167714178562164,1.2326105833053589
1773257642451220700,18.694220703125,0.1165694468945264,-0.0026619857508689,0.1023778399348259,0.0003789938054978,-0.0296349227428436,0.0459226071834564,-0.2648164730787277,0.2624338157258927,-1.7995019291959702,-0.1805127114057541,-3.3350067138671875,1.082690954208374,1.0284382078528405,-0.3425695748448372,-1.227019290740788,-0.6796863079071045,-0.0372308790683746,1.030573844909668
1773257642461246700,18.704246826171875,0.1099451333839446,-0.0034362945916131,0.0951385363310575,0.0008620911976322,-0.0308519899845123,0.042333461344242,-0.6751993549555539,0.5686540200777351,-1.2702120973877609,-0.2467037141323089,-3.4195942878723145,1.731383204460144,0.7016793656021356,-0.123375619778037,-1.1092167949199676,-0.7493190169334412,-0.3744969964027405,0.9955660104751588
1773257642471273700,18.714273681640623,0.0864449422657489,0.0099049426164478,0.0795136816978454,-0.0019565746188163,-0.0321399793028831,0.0357303023338317,-0.919489172834158,0.4778577507346868,-1.01169107119143,-0.2612210214138031,-3.615757703781128,2.3485183715820312,0.6829442699939012,0.1358890643924474,-0.4965957689523697,-0.789832353591919,-0.6759351491928101,1.0105242729187012
1773257642481299700,18.7242998046875,0.0605704232316464,0.0388457904186099,0.050554713717103,-0.0018210196867585,-0.0288131572306156,0.0306777525693178,-1.0261942283183336,0.2656836113020777,-0.5631652134031057,-0.2084784805774688,-3.746417760848999,2.8729071617126465,0.9852946471750736,-0.113192663937807,0.1965624365419149,-0.7557699680328369,-1.1173261404037476,1.0959112644195557
1773257642491326700,18.73432666015625,0.0357405909448862,0.044562158771418,0.0104863227009773,0.0003192562144249,-0.0194403622299432,0.0263448245823383,-1.4441092592656612,0.0569173806168138,0.4886287355959415,-0.0836181491613388,-3.757005453109741,3.191890478134156,1.0867723964650182,0.1759749910652637,1.0475932824388146,-0.53639155626297,-1.7150899171829224,1.3263648748397827
1773257642501353700,18.744353759765627,0.0421925435632467,0.0428167033435776,0.015859832432866,-0.0015952901449054,-0.0176688265055418,0.0212906785309314,-1.8389543802708384,-0.0708169458273798,0.9366907752647996,0.1336537152528762,-3.9059009552001953,3.304516553878784,0.6042699617296456,1.1637427503556013,2.271834340637922,-0.3566115498542785,-1.9426124095916748,1.3399804830551147
1773257642511379700,18.754379638671875,0.0687765991061925,0.0060564504947513,0.0351473012268543,-0.0025664349086582,-0.0224765874445438,0.0191359631717205,-1.9480010304450988,0.2102297273665666,1.3963982445418834,0.3780488073825836,-3.819772720336914,3.4873642921447754,0.9956921225488186,0.0360310983240604,2.5894173582643267,-0.3804984986782074,-1.905381441116333,1.0437387228012085
1773257642521406700,18.76440673828125,0.0818850870043039,-0.0183146417064592,0.056142158460617,-0.0040165265090763,-0.0344488248229026,0.0308179222047328,-2.289889637288451,0.2056081502468325,2.2153391309559343,0.5951414704322815,-3.637269973754883,3.807389974594116,1.7976187457978725,-1.16251408534348,1.8053759357959032,-0.415970891714096,-1.83264684677124,0.7461124658584595
1773257642531432700,18.7744326171875,0.0488614268679171,-0.0336850466545671,0.0915840587198734,-0.0074682030826807,-0.0505341403186321,0.0409639291465282,-3.39026378506124,-0.4049604549692943,2.282213403572142,0.728590726852417,-3.2879998683929443,4.000000953674316,2.0824024866282937,-0.5121650940060615,1.1920771566972137,-0.4918741881847381,-1.6372848749160769,0.489654541015625
1773257642541459700,18.784459716796874,0.0523234038900583,-0.024057605805248,0.0950923591017723,-0.0134406089782714,-0.0628291592001915,0.0498514287173748,-4.0114667614132165,-0.875064632435143,2.4515467646658418,0.7871128916740417,-2.808491468429565,3.94313645362854,1.9635949054181567,-0.410053211531043,0.7046756248086691,-0.7448080778121948,-1.3768670558929443,0.2652199566364288
1773257642551485700,18.79448559570313,0.0476489823382347,0.0043282749952748,0.1061176109850406,-0.0211729854345321,-0.0687711611390113,0.0548760667443275,-3.478408516982197,-0.9639552873525769,2.0670926892936228,0.7899433970451355,-1.633279800415039,3.622646570205689,1.362905140262842,-2.730104762849212,-1.2924174994550646,-1.2876181602478027,-0.9026184678077698,0.0329262502491474
1773257642561512700,18.8045126953125,0.0368372270751744,0.0342287250772118,0.1219306816667318,-0.025413004681468,-0.073324367403984,0.0536856353282928,-2.5286785196632144,-0.7334218268215655,2.196328725537658,0.8436707854270935,-0.3084674775600433,2.939323663711548,0.2767886138906702,-3.524445461013913,-2.765906144070625,-1.7042303085327148,-0.7773730754852295,-0.2877328395843506
1773257642571539700,18.81453979492188,-0.0072960022270679,0.0262952286642044,0.1227618717938661,-0.0339972078800201,-0.0749420747160911,0.0465359166264534,-1.3159469897329807,-0.4241237493943423,3.14719912506342,0.879266619682312,0.9447190761566162,2.245988845825196,0.7258242112994193,-0.8268535592347384,-2.1635496147468687,-1.8391460180282595,-1.3269819021224976,-0.4380671977996826
1773257642581565700,18.82456567382813,-0.0046503830891102,0.0119002080868929,0.1169756896078586,-0.03660524263978,-0.0701925903558731,0.0377019457519054,-1.80034612493515,-0.2784405092835426,2.336943649408221,0.8710827231407166,1.8177839517593384,1.925328612327576,0.9207564162909984,1.4861831448853016,-1.1988209318690002,-1.7987459897994995,-1.9042978286743164,-0.6352505683898926
1773257642591592700,18.8345927734375,0.0430453610002994,0.0032645182212814,0.0847936679273843,-0.0389504991471767,-0.066123180091381,0.0292128399014472,-4.114144461077451,-1.356011435226351,0.7586977223753929,0.82452392578125,1.832805752754212,2.2374305725097656,0.5514963663866743,2.1378145772486925,0.50682460976094,-1.614522099494934,-2.227916955947876,-0.7940838932991028
1773257642601618700,18.84461865234375,0.0837683434676379,0.0198352023372426,0.0810205791294574,-0.0426978357136249,-0.0654443427920341,0.0249128974974155,-6.955978829574584,-1.9174916181519623,-0.3358952116474509,0.6959303021430969,0.213615745306015,3.30547833442688,-0.0857680841838009,2.15659994173944,1.7556243551552295,-1.5115129947662354,-2.26112699508667,-0.922331690788269
1773257642611645700,18.854645751953125,0.1077250461816787,0.0140878543242812,0.0869622441381216,-0.0427315346896648,-0.0699879899621009,0.025311404839158,-8.662454246157408,-2.240593983721733,-1.3011319901779292,0.7015886306762695,-0.8763442635536194,4.838805198669434,-0.7269219434082508,1.818546967536211,0.8798058356128633,-1.3646910190582275,-1.948683381080628,-0.5889921188354492
1773257642621672700,18.86467260742188,0.0855232243109494,0.0304240720972418,0.1007172132462263,-0.0383836589753627,-0.0751678422093391,0.0319064557552337,-8.08265353977382,-3.163654000779986,1.244749885481596,0.8814135193824768,-1.809422373771668,6.0318450927734375,-2.2211749975025654,2.678041398134828,0.9312922772221268,-1.1431663036346436,-1.582819581031799,-0.2041917443275451
1773257642631698700,18.87469873046875,0.0630068565983325,0.0713792924178764,0.1232166298240423,-0.0379377752542495,-0.0848246365785598,0.0402153022587299,-5.774970471641421,-3.2587460676208138,3.7064059562295673,1.1744149923324585,-2.3926305770874023,6.367947578430176,-1.890569416695833,3.299900208047032,0.7342636114079505,-0.9067860245704652,-1.0115478038787842,0.0382603108882904
1773257642641725700,18.8847255859375,0.0092290891814976,0.0569265868365764,0.1699719512581825,-0.037602748721838,-0.0842504575848579,0.0485227666795253,-3.3041648797541856,-2.217710536262393,4.6008244006931776,1.4066810607910156,-2.22904372215271,6.260900974273682,-2.5882746179699896,3.698982528230548,0.0554660127647221,-0.6093947887420654,-0.361781507730484,0.1917311996221542
1773257642651751700,18.894751708984376,-0.0018429244529455,0.0632659459259361,0.1106406413674354,-0.0356057174503803,-0.0880291610956192,0.0514491908252239,-1.5748089383214712,0.0253150585204362,3.844885621637106,1.4272867441177368,-1.7210333347320557,5.826595783233643,-2.7109844673156736,3.088272888842225,-0.4553925286874175,-0.3080706298351288,-0.4575900733470917,0.4001613855361938
1773257642661778700,18.90477880859375,0.0004577537048608,0.106256033075042,0.0775087716162204,-0.0369114652276039,-0.0871753543615341,0.0639290288090705,-0.5602227302104235,0.8912436138197779,2.1183324626654385,1.2417423725128174,-0.913768470287323,5.45307731628418,-0.63283379291296,2.1032178956419227,-0.71231576429829,-0.1738600581884384,-0.7922144532203674,0.5542842149734497
1773257642671804700,18.9148046875,0.0434405708629637,0.1318149833539501,0.0649625937759876,-0.0437380261719226,-0.082090213894844,0.0721925422549247,-0.6928641909837723,0.4872393270641565,0.9920575654387472,0.8385903835296631,-0.2239027172327041,5.1139020919799805,0.0093745620667934,1.0960504393547772,-1.2685577543094753,-0.0523674488067626,-0.7268154621124268,0.7814377546310425
1773257642681831700,18.924831787109376,0.0311031038699671,0.1403486376171931,0.0426379492431879,-0.0487258620560169,-0.082814060151577,0.0818686038255691,-0.0771861155331134,-0.2029673351481556,-0.0627034166723489,0.2745368778705597,0.2509477138519287,4.825623512268066,-0.7344868257045746,0.223681329613924,-0.6917743499204516,0.1007743179798126,-0.4454265832901001,1.387169361114502
1773257642691858700,18.934858642578124,0.0325350729018449,0.1546596331728622,0.0027823241949081,-0.0501678027212619,-0.0815159678459167,0.0909753069281578,0.6271966638088226,-1.195823942010105,-0.7861556381434202,-0.353732019662857,0.4247619211673736,4.657254219055176,-0.8470131346881389,-0.1941629741847515,0.5516118459925056,0.2167544513940811,-0.1772723644971847,1.9333903789520264
1773257642701884700,18.944884765625,0.0408433939766138,0.1411351483523845,-0.0277981075078248,-0.0452161878347396,-0.0804299265146255,0.1030945554375648,0.8324860121637583,-1.5014859279572963,-1.2324731722325086,-0.9654800295829772,0.3460300862789154,4.536404132843018,-1.301703360325098,-0.0006681085199117,2.1458903316766023,0.3602036237716675,0.0760997831821441,2.251084804534912
1773257642711911700,18.95491162109375,0.0401706823468208,0.132455071355775,-0.0351969855874776,-0.0474292747676372,-0.0791526734828949,0.1082823872566223,0.8699491891175508,-1.4668027371108532,-1.3460463599205017,-1.4893072843551636,0.2084443718194961,4.2925214767456055,-0.0931612449087202,0.990508582431078,3.242934165982902,0.6487848162651062,-0.1158475503325462,2.1750147342681885
1773257642721937700,18.964937744140624,-0.000563552166894,0.1029370812527835,-0.0615852262973785,-0.0410653837025165,-0.0849642232060432,0.1109772399067878,0.7526444136857986,-1.1357540887117386,-0.6429062741160393,-1.867491602897644,0.619455099105835,4.162846565246582,2.595916657155752,-0.2668582080394029,3.809016728137433,0.5339671969413757,0.1141744181513786,1.7817580699920654
1773257642731965000,18.97496484375,0.0057615592014044,0.1319936278564855,-0.0771492906540632,-0.034805703908205,-0.0891982913017273,0.1187102571129798,-0.4404606247544288,0.0942395416647195,-0.2808060693711042,-2.1909444332122803,1.4311317205429075,4.350152492523193,3.058077072542906,0.0741997931987047,1.1590597071059048,0.2681091725826263,0.4940186738967895,1.3667196035385132
1773257642741991700,18.98499169921875,0.0590874911975115,0.1370945677246898,-0.0642348640233278,-0.0270929243415594,-0.0882880240678787,0.1284965574741363,-2.0108184288859365,1.6755372574836014,-0.6202864460289478,-2.3630337715148926,1.6352757215499878,4.588221549987793,1.312416623649746,0.5845996310979128,0.7042775654017925,0.100803792476654,0.5885923504829407,0.9665611386299132
1773257642752017700,18.995017578125,0.083522332817316,0.1396680349418893,-0.0014852701216936,-0.0236983429640531,-0.0822146758437156,0.1321450471878051,-1.8634844258934256,2.7340619760423897,-0.280619899149239,-2.409125328063965,1.4757239818572998,4.440220355987549,0.7709925558030605,0.6176677879631519,0.5276061895702034,-0.1338353604078292,0.6910867691040039,0.582381546497345
1773257642762044700,19.00504467773437,0.0535818795185536,0.1110050542330369,0.0663011489033699,-0.0204535461962223,-0.0730318278074264,0.1314757913351059,0.3059916562929749,3.3661481654584406,0.8714534562006592,-2.276333332061768,1.656513214111328,4.137287139892578,0.7275204938232899,-0.4938491005927324,-0.9994523518651725,-0.509398877620697,0.8302479982376099,0.2159511446952819
1773257642772070700,19.015070556640627,0.067449734416604,0.0702210622934624,0.0884352393001318,-0.0155413895845413,-0.0674251392483711,0.1278431415557861,1.1276263118356469,3.6359289829462766,1.37376380340755,-1.982221007347107,1.5084933042526243,3.6291446685791016,-0.576889202851057,-2.84732302904129,-1.5580293606951832,-0.6222468614578247,0.9010337591171264,-0.055439606308937
1773257642782098000,19.025097900390627,0.0887899710219353,0.0562756851797923,0.0658113195598125,-0.0083623062819242,-0.0594947822391986,0.1283616721630096,1.6930977563545109,3.390374259698391,1.2830965672716497,-1.4797147512435913,0.7831627726554871,2.544727563858032,-1.462098651073128,-3.382794179832936,-1.7915224747493863,-0.7952655553817749,0.7469241619110107,-0.4324953854084015
1773257642792124700,19.03512475585937,0.1084247188836336,0.0189220330150797,0.0494587351739406,-0.0060678767040371,-0.0545594058930873,0.1332016438245773,3.980467227515578,2.9850170970290897,1.946722681072354,-0.7598890662193298,0.563216507434845,1.150585412979126,0.1406707457110285,-2.583197460836172,-3.2906180004388093,-1.069855809211731,0.3776148855686188,-0.8906645178794861
1773257642802150700,19.045150634765623,0.1289952132254838,0.0077199997927993,0.0380167191833257,-0.0033053795341402,-0.0454010628163814,0.1412912607192993,4.772494972562789,2.3898382042497395,2.876404454357922,0.0129828918725252,0.7950795292854309,-0.1111606210470199,1.402240979220718,-1.6609084281504154,-3.608670389142632,-1.273551106452942,0.4457364380359649,-1.3473068475723269
1773257642812177700,19.055177734375,0.1285346099764108,0.0128599930297583,0.0060509706020355,-0.0007805894128978,-0.0398458167910575,0.1466336846351623,3.2432705583304164,1.794982552075386,2.605417183689773,0.6477149128913879,0.8400685787200928,-0.9944824576377868,0.8596202489353716,-1.0665233160972594,-2.5386755975425244,-1.2434827089309692,1.0701589584350586,-1.603653073310852
1773257642822203600,19.06520361328125,0.1097925366381183,0.0268834038157016,-0.0342968218773603,-0.0005294533912092,-0.0402197241783142,0.1483687460422516,1.4852923335254191,1.4927952565014362,1.1847273784562944,1.0413353443145752,0.7132281064987183,-1.3949270248413086,-0.4829037820778787,-0.6149731420516967,-1.2677153121359646,-1.0157372951507568,1.7882102727890017,-1.7598518133163452
1773257642832231000,19.07523095703125,0.0870411545932293,0.0425084045793861,-0.0572884058862924,0.0026955548673868,-0.036997202783823,0.1481604725122451,-0.3285422185361385,1.6226836191743612,-0.1938461633205413,1.2176735401153564,0.640108585357666,-1.4714215993881226,-0.4152735034625977,0.200273566019535,0.1816626447802409,-0.5543869137763977,2.562162637710572,-1.828370451927185
1773257642842257000,19.0852568359375,0.0459744001895189,0.0576481791093945,-0.0959790788084268,0.0062679192051291,-0.0356464460492134,0.1459686905145645,-2.550578801304102,2.223871396979689,-0.8001090524330735,1.2730568647384644,0.6803683638572693,-1.3562170267105105,-0.6011386049013584,1.6383277630299329,1.6382254716992375,-0.0038750963285565,3.472971677780152,-1.763870358467102
1773257642852283600,19.09528369140625,0.017061024916172,0.0725013917829841,-0.1033989996761083,0.0052967006340622,-0.0347432643175125,0.1484072655439376,-2.4268308410823343,2.1095371617913243,-0.7400912215828895,1.325098991394043,0.8336753845214844,-1.132017731666565,-1.5215490572988986,2.92740778862536,2.3369958179868755,0.4545111358165741,4.40514612197876,-1.624506592750549
1773257642862310700,19.105310546875,0.0054249476581811,0.0686956793570891,-0.0729822341024875,0.0082714520394802,-0.0256459061056375,0.1448066681623459,-3.2613942440420387,2.4392612835884093,-0.7893132253915071,1.5142536163330078,1.147671103477478,-0.9433072805404664,-1.865674629414081,3.490353221797943,1.648193908005953,0.2064008116722107,5.177942752838135,-1.4515389204025269
1773257642872336600,19.11533666992188,0.0164414317131042,0.0447497537653893,-0.0364747504383325,0.008858828805387,-0.015934694558382,0.1457090079784393,-3.6118291454344975,2.88969677439034,-0.3170496414020657,1.8617266416549685,1.450708508491516,-0.7646087408065796,-1.4816004932701587,1.951519852221012,-3.602658289246261,-0.5714715123176575,5.632964134216309,-1.4954909086227417
1773257642882364000,19.12536401367188,0.0243441676616668,0.0099045772902667,0.0038742110848426,0.0023575199302285,-0.0138537008315324,0.1423100084066391,-3.78111311442852,3.7034096970230337,0.4209092443272471,2.363774299621582,1.6771270036697388,-0.5257924199104309,1.3300982646822928,0.90363284753263,-4.869492288503051,-1.3868898153305054,5.250699520111084,-1.3941329717636108
1773257642892390000,19.135389892578125,0.0146598089933395,-0.0010099076949059,0.0226531458348035,0.000497268512845,-0.0182111542671918,0.1378725469112396,-3.892537599650025,4.242473903870582,0.8057537803217768,3.00826382637024,1.6883695125579834,-0.2037901580333709,-0.3353197498470545,-0.2001239284157752,-3.37521351544559,-1.6765069961547852,4.060495853424072,-1.048037052154541
1773257642902416600,19.14541674804688,0.043867271842435,0.0108287063978612,0.0296083718001842,-0.0037153197918087,-0.0169360339641571,0.1365843713283538,-3.871869490152597,4.371709940114617,1.0005968457251786,3.723606824874878,1.809822916984558,0.0414355732500553,-1.0898948393344878,-0.6974392438143492,-0.3408527244569733,-1.732642412185669,2.5719382762908936,-0.8249541521072388
1773257642912443600,19.155443603515625,0.0504289684455841,0.0112738563494756,0.0486859972357749,-0.0070849042385816,-0.0226861722767353,0.1377962529659271,-3.9157203223168846,3.5551258459597825,0.7899746119096874,4.367820739746094,2.26908278465271,-0.0656777471303939,0.2307224802970886,-1.2562369096577166,0.7875050069257616,-1.8656295537948608,1.459391951560974,-0.7599935531616211
1773257642922469600,19.1654697265625,0.0313146277287974,0.0096054847458377,0.0711988578170537,-0.0100194411352276,-0.0267062149941921,0.136345624923706,-3.8540550165206193,2.7377006248056888,-0.2686772401601076,4.833954811096191,2.8847577571868896,-0.5200399160385132,0.966300608369708,-1.2448264578491448,-0.0532150555001571,-2.0426387786865234,0.7782881855964661,-0.7043047547340393
1773257642932497000,19.17549682617188,0.0386257909923791,0.037677513824217,0.0807031837433576,-0.0082914233207702,-0.0271170698106288,0.1361480355262756,-3.3343519282251592,2.8190175565332174,-1.0915829385519027,5.172279357910156,3.4554247856140137,-1.2263240814208984,1.2622785279095172,-1.17972825499475,0.0901820829674601,-1.963782906532288,0.3852311670780182,-0.6532027125358582
1773257642942523000,19.18552294921875,0.0768114735344424,0.0457792429435998,0.067479545032978,-0.0047784470953047,-0.0256177075207233,0.1394045501947403,-1.962554456454516,2.4758359872698783,-0.9233639684408904,5.282730102539063,3.5984272956848145,-2.104971408843994,2.078963744351268,-0.6806213800042867,2.7325983332306145,-1.493991136550903,0.0868643894791603,-0.7597217559814453
1773257642952549600,19.19554956054688,0.118351727201417,0.0584031256625428,0.0500391654103994,-0.0071754083037376,-0.0186522174626588,0.1435405015945434,-0.1647176839917898,2.3963205520063635,-0.4470160377472639,5.275484561920166,3.440943956375122,-3.0485622882843018,3.288113324141502,0.7480746215522289,5.493713735893368,-0.6923335194587708,-0.1024916917085647,-0.9136590957641602
1773257642962576600,19.20557666015625,0.0808785403102636,0.047554107129015,0.0253840321034193,-0.0085543934255838,-0.0136324241757392,0.1451495885848999,0.9721452427446842,1.8081351713761689,-0.8026303876042366,5.161312580108643,2.950522899627685,-3.870889186859131,2.543385674929618,2.231849536252022,6.972351287704706,0.2094432860612869,0.106082484126091,-0.7398980855941772
1773257642972602600,19.2156025390625,0.0169803974280133,0.0482603922348469,0.0059656304061412,-0.0085504753515124,-0.0218573845922946,0.1480980366468429,2.0358207681953906,2.032211637787521,-2.815425669521093,3.192266702651977,1.849174976348877,-4.510695457458496,-1.3468348799496888,2.892776620227098,5.8535296290934085,0.530100405216217,1.4391131401062012,-0.2128105759620666
1773257642982630000,19.2256298828125,-0.0129898299545049,0.041085020712763,-0.0040051439881324,-0.0084109250456094,-0.0210126303136348,0.1453576385974884,4.653151384779811,-0.9062886227384208,-12.56273617632389,2.659849166870117,0.2103153765201568,-4.098868370056152,-4.341197897472977,2.520076111012697,-0.0667149173360317,0.2526451349258423,2.799604892730713,0.0245348811149597
1773257642992656000,19.23565576171875,-0.0052893385797739,0.036885596261546,-0.0075543609023094,-0.0099986623972654,-0.0229812897741794,0.1425906270742416,2.7673972594112155,-1.949793466819823,-2.923294508087635,3.217209577560425,-0.2190518081188202,-3.7158827781677246,-2.36730722348988,1.867264528954029,-3.7246640819758174,-0.1801496893167495,4.019671440124512,0.0743306651711463
1773257643002682600,19.2456826171875,-0.0102905078679323,0.0418840256033465,-0.0405593894034624,-0.0070976805873215,-0.0295196138322353,0.1404177546501159,-0.4950234050691127,0.2271224099785089,3.185473033878207,3.420217990875244,-0.2717171609401703,-3.734809398651123,-1.509867971855402,1.3712141189247369,-3.586221825969219,-0.3745982348918915,4.686250686645508,0.1548320055007934
1773257643012708600,19.25570849609375,-0.0140402157902717,0.0662834671162068,-0.0437649074465036,-0.0055226874537765,-0.0255461782217025,0.1366768032312393,-1.5401280855625867,1.051399835114926,-0.4872212068855762,3.5179121494293213,-0.5622187256813049,-3.2341625690460205,-1.1024586989618836,1.2219991244912147,-1.654618388095498,-0.2575437724590301,4.690344333648682,0.31217822432518
1773257643022735600,19.265735595703124,0.0094084278037771,0.038891894582659,0.0173597156018018,-0.0066563948057591,-0.023416981101036,0.1340301632881164,-1.7118232073515651,-0.0618595131941139,-1.7185405329078436,3.582183361053467,-1.0241624116897583,-2.56238341331482,-1.8113965112596748,1.0995587397366762,0.219108322609961,0.0369616709649562,4.243022441864014,0.4834142625331878
1773257643032763000,19.275762939453124,0.0043336452901363,0.0142453099083155,0.0509808301746845,-0.0009704331168904,-0.0281987953931093,0.1282709389925003,-2.356259759774804,1.251085956635326,-1.141643146750331,3.635742425918579,-1.5328433513641355,-1.8022403717041016,-0.8850023813426494,-0.8738350906401872,0.7735711010541766,0.3365814089775085,3.470412492752075,0.3496468961238861
1773257643042788900,19.28578881835937,0.0066600424110889,-0.0223644650865346,0.0785106421351432,0.0084313247352838,-0.0283612478524446,0.1200460344552993,-2.736191389286518,1.1274865380387753,-1.0506751741021871,3.6638479232788086,-1.5365254878997805,-0.9785486459732056,1.6074679298639296,-4.626366253706813,0.5426060441728681,0.4171102344989776,2.5976271629333496,-0.1439642012119293
1773257643052815600,19.295815673828123,0.0100941450456157,-0.0369599766720086,0.0932218890547752,0.0138167757540941,-0.033711839467287,0.1149547398090362,-4.084386451673508,0.2455937400840222,-1.3566156847298143,3.3615429401397705,-1.1054030656814575,0.2830999493598938,3.4031256047219034,-5.060879368233681,-1.5261375541329385,0.1145863234996795,1.9919933080673216,-0.7002993822097778
1773257643062841600,19.30584155273437,0.0284469633379951,-0.0389202804269269,0.1120125142425298,0.0193098112940788,-0.0354117341339588,0.1106609255075454,-6.929688788542151,0.8713837519653141,-2.945729627257585,2.8578195571899414,-0.1942898333072662,1.8896998167037964,2.2298726832211018,-3.5049902344375847,-2.739393400198221,-0.0721034854650497,1.6347966194152832,-0.778666079044342
1773257643072868900,19.31586889648437,0.0391506916493177,-0.0341196752121672,0.1263525897622108,0.0232142992317676,-0.0353936068713665,0.1133930385112762,-9.211371738499402,0.273151974421367,-5.576358116832375,2.481105089187622,0.5184473395347595,3.101415634155273,-1.5596780046850445,-2.5741771190345286,-1.045783602668345,-0.0155296865850687,1.2757683992385864,-0.4993835389614105
1773257643082896000,19.325895751953126,0.0496662404447793,-0.0148006057035177,0.1106195985794067,0.0265730787068605,-0.0306920576840639,0.116771787405014,-6.361747446778416,0.2443845104247331,-3.917294439765811,2.885861396789551,1.0897555351257324,3.4060592651367188,-2.8216747930437327,-2.401025953218341,0.3443292779937386,0.1080494448542594,0.7487199306488037,-0.3020914793014526
1773257643092921900,19.335921875,0.0057505628833547,0.0082670026836916,0.1011573582291603,0.0253389067947864,-0.0210327785462141,0.1199203357100486,-1.8341309056371449,1.386154498425126,-0.6527542989134788,2.577775478363037,0.7733811736106873,2.4214348793029785,-1.301128775307536,-2.669529005855322,0.3044741644021123,0.2200534790754318,0.2603622674942016,-0.3206310868263244
1773257643102948600,19.34594848632813,-0.0720528442978858,0.0248931433139368,0.0678933865308761,0.0277743674814701,-0.0253905113786458,0.1202489659190177,4.741621695393324,-0.8351466096751391,-9.518661325648427,1.943282008171081,0.1008813083171844,0.7381405234336853,-0.2110989114165306,-3.0842829424232243,0.0784359694637358,0.3434126675128937,-0.0041792690753936,-0.4404682517051697
1773257643112974600,19.355974609375,-0.1655003953346982,0.0391555870201438,0.053344636696577,0.0232149101793766,-0.0323406532406806,0.1150314286351203,8.9873151458323,-4.6483179732739925,-8.499632166653871,1.8134249448776243,-0.3841203451156616,-0.2441285550594329,-0.1278198127705603,-2.951793457341194,0.0136561849087476,0.4533767402172088,-0.0670343935489654,-0.5905233025550842
1773257643123001900,19.366001953125,-0.2062333146741613,0.0471750081509351,0.0322147549062967,0.0233169086277484,-0.0370712280273437,0.1117661222815513,5.534785166472196,-6.23628099220097,-3.357280968391895,1.35051167011261,-0.2215548455715179,-0.1767449826002121,-0.1162093083452433,-2.2660352989703414,-0.2602968036971986,0.5209857821464539,-0.0103582758456468,-0.713528037071228
1773257643133027800,19.37602783203125,-0.1941710844259709,0.0360169602008536,0.0308528189033269,0.017899015918374,-0.0461244247853755,0.1058656275272369,0.8070750920534133,-5.254960509353876,-5.594568896305561,0.7617496848106384,0.1862405985593795,-0.163909450173378,-0.3919955037277192,-1.1828823351114988,-0.3179394298486411,0.6007149815559387,0.0964808240532875,-0.7781248688697815
1773257643143054800,19.386054931640626,-0.1486602831602096,0.0338175504604354,0.0408633407860994,0.014454748481512,-0.0497324727475643,0.1074368953704834,2.0477678110986948,-3.4239410137355324,-6.268712020206452,0.5605518817901611,0.7561248540878296,-0.3560410737991333,-0.33657764095366,-0.4440642022043466,-0.1955102240752428,0.6626414656639099,0.1557711511850357,-0.8748595714569092
1773257643153081600,19.39608154296875,-0.0962368164291605,0.0216394752802327,0.02450608022511,0.009622142650187,-0.0469475910067558,0.1102109849452972,2.663677941739559,-0.0986866207340732,-4.38153224594891,0.4059683382511139,1.2420016527175903,-0.2719732820987701,0.4407131382107734,0.5509510439962149,-0.0956855757545679,0.5207687616348267,0.1249964609742164,-1.033847689628601
1773257643163107600,19.406107666015625,-0.0485509361466392,-0.0135446873582899,0.0043622868627309,0.0075747049413621,-0.0321489423513412,0.1127337962388992,0.595582212883234,0.5761686334915459,-2.934560582989454,0.2370277792215347,1.2988293170928955,-0.2140820026397705,1.1188077031511812,1.9855062929749487,-0.1197844634182751,0.3763638734817505,0.044697068631649,-1.0481523275375366
1773257643173134800,19.416134765625,-0.0356155032604932,-0.0356749418301507,-0.0257300690621137,0.0085996426641941,-0.0128608867526054,0.1063450127840042,0.0594867927134037,-0.6478252450134605,-1.8068454238265752,0.1509321182966232,0.9547237157821656,-0.3136675059795379,-0.5374858516149222,1.3403174608796835,0.503041072634235,0.2261804938316345,0.1338312029838562,-0.8572138547897339
1773257643183160800,19.42616088867188,-0.0395329324325546,-0.0479319639980792,-0.0540805497556924,0.0126202162355184,0.0006895437836647,0.1028211116790771,-0.1281213530004024,-0.7891505821757018,-0.4871715225249529,0.1474990248680114,0.3828945457935333,-0.3963352143764496,-1.1500672031592578,1.1524521255344151,-0.3096816699173301,-0.074504055082798,0.2544607520103454,-0.7035198211669922
1773257643193187800,19.436187744140625,-0.0213642750680446,-0.0602299026982858,-0.0757283179402351,0.0157455429434776,0.0111881820484995,0.0989366099238395,-0.8035597774088382,-0.5256330993989482,0.906842457228899,0.1853340864181518,-0.3272669613361358,-0.3666370809078216,-0.9258623611278832,1.01079616817832,-1.030201125872135,-0.2535305321216583,0.6787524223327637,-0.3676379919052124
1773257643203214600,19.446214599609377,-0.0238935378173366,-0.0704120182882994,-0.0896066211670637,0.0155798951163887,0.0163147673010826,0.0964731872081756,-1.6397534119188784,-0.0502818881250917,1.7397101621866224,0.1045020818710327,-0.930043637752533,-0.3088219761848449,-0.6797035345070064,0.5494949999690055,-0.372481751897186,-0.1767112016677856,0.9853296875953674,-0.1969408392906189
1773257643213241000,19.45624096679688,-0.0147287460437044,-0.0533903390018269,-0.1001952351987361,0.019157588481903,0.0183258354663848,0.0959989577531814,-2.0846879672169685,0.949228477537632,0.9727145670652388,-0.0370760932564735,-1.3293335437774658,-0.2160736471414566,1.248086628688872,0.5073486336350441,0.1870789342079311,-0.1068900376558303,1.1226428747177124,-0.2070009261369705
1773257643223268000,19.46626806640625,-0.0200695225497707,-0.0940908173764124,-0.0862666630893945,0.01487229578197,0.0208262763917446,0.0883556827902793,-2.0972376521885394,1.8715052352637047,0.1400081901490688,-0.0922876819968223,-1.3656212091445925,-0.1063199788331985,1.7509300598591564,-0.1358662680387496,0.049366672976315,0.0215574353933334,0.9670000076293944,-0.2497080266475677
1773257643233294000,19.476294189453125,-0.0446978043824434,-0.1178329274917021,-0.0735626643389463,0.0119624156504869,0.0277238246053457,0.0763447657227516,-1.417286718791723,2.089967076663673,-0.1586152754634618,-0.1183779910206794,-1.5999691486358645,-0.0687647685408592,1.5190965495802462,-0.4085498212307691,0.4630813296243548,0.0867670699954032,0.6475194692611694,-0.2706415355205536
1773257643243321000,19.48632104492188,-0.0692769863763824,-0.1173325767541304,-0.0357598801672458,0.0076166694052517,0.0290578007698059,0.0662058442831039,-0.5369365471690893,0.4869919647069647,-0.6635545098692178,-0.1914599239826202,-1.475786209106445,0.0087292278185486,1.0478361512839791,-0.4300444446802139,0.1150206830825656,0.0720280483365058,0.2904917299747467,-0.2350122481584549
